participant:assignmentId,condition,state,trial,blockTrial,trialStartTime,monster,family,category,preferredFood,choice,correct,rt
A126BDE73YE05F:3WT783CTPCWKJX1QYELIIJS86P9BCC,0,free,1,1,2453,Bear_3_2,Bear,category2D,pancakes,pancakes,True,3865
A126BDE73YE05F:3WT783CTPCWKJX1QYELIIJS86P9BCC,0,free,2,2,7216,Bear_5_6,Bear,category2D,waffles,pancakes,False,4218
A126BDE73YE05F:3WT783CTPCWKJX1QYELIIJS86P9BCC,0,free,3,3,13975,Bear_3_6,Bear,category2D,waffles,waffles,True,3353
A126BDE73YE05F:3WT783CTPCWKJX1QYELIIJS86P9BCC,0,free,4,4,18139,Bear_2_3,Bear,category2D,pancakes,waffles,False,733
A126BDE73YE05F:3WT783CTPCWKJX1QYELIIJS86P9BCC,0,free,5,5,20161,Bear_5_1,Bear,category2D,waffles,pancakes,False,2563
A126BDE73YE05F:3WT783CTPCWKJX1QYELIIJS86P9BCC,0,free,6,6,24115,Bear_4_5,Bear,category2D,waffles,waffles,True,3497
A126BDE73YE05F:3WT783CTPCWKJX1QYELIIJS86P9BCC,0,free,7,7,28573,Bear_1_1,Bear,category2D,pancakes,pancakes,True,1784
A126BDE73YE05F:3WT783CTPCWKJX1QYELIIJS86P9BCC,0,free,8,8,31283,Bear_3_6,Bear,category2D,waffles,pancakes,False,2448
A126BDE73YE05F:3WT783CTPCWKJX1QYELIIJS86P9BCC,0,free,9,9,35281,Bear_2_6,Bear,category2D,waffles,waffles,True,1460
A126BDE73YE05F:3WT783CTPCWKJX1QYELIIJS86P9BCC,0,free,10,10,37886,Bear_4_2,Bear,category2D,pancakes,pancakes,True,1854
A126BDE73YE05F:3WT783CTPCWKJX1QYELIIJS86P9BCC,0,free,11,11,40531,Bear_3_4,Bear,category2D,pancakes,pancakes,True,2198
A126BDE73YE05F:3WT783CTPCWKJX1QYELIIJS86P9BCC,0,free,12,12,43562,Bear_1_6,Bear,category2D,waffles,waffles,True,2085
A126BDE73YE05F:3WT783CTPCWKJX1QYELIIJS86P9BCC,0,free,13,13,46875,Bear_1_1,Bear,category2D,pancakes,waffles,False,341
A126BDE73YE05F:3WT783CTPCWKJX1QYELIIJS86P9BCC,0,free,14,14,48869,Bear_1_2,Bear,category2D,pancakes,waffles,False,2527
A126BDE73YE05F:3WT783CTPCWKJX1QYELIIJS86P9BCC,0,free,15,15,52700,Bear_2_5,Bear,category2D,waffles,waffles,True,3042
A126BDE73YE05F:3WT783CTPCWKJX1QYELIIJS86P9BCC,0,free,16,16,57003,Bear_3_6,Bear,category2D,waffles,waffles,True,2001
A126BDE73YE05F:3WT783CTPCWKJX1QYELIIJS86P9BCC,0,free,17,17,59797,Bear_5_6,Bear,category2D,waffles,waffles,True,2338
A126BDE73YE05F:3WT783CTPCWKJX1QYELIIJS86P9BCC,0,free,18,18,62983,Bear_4_6,Bear,category2D,waffles,waffles,True,2473
A126BDE73YE05F:3WT783CTPCWKJX1QYELIIJS86P9BCC,0,free,19,19,66319,Bear_5_4,Bear,category2D,waffles,pancakes,False,3443
A126BDE73YE05F:3WT783CTPCWKJX1QYELIIJS86P9BCC,0,free,20,20,71128,Bear_1_4,Bear,category2D,pancakes,waffles,False,2764
A126BDE73YE05F:3WT783CTPCWKJX1QYELIIJS86P9BCC,0,free,21,21,76189,Bear_2_1,Bear,category2D,pancakes,pancakes,True,3121
A126BDE73YE05F:3WT783CTPCWKJX1QYELIIJS86P9BCC,0,free,22,22,80153,Bear_2_1,Bear,category2D,pancakes,pancakes,True,831
A126BDE73YE05F:3WT783CTPCWKJX1QYELIIJS86P9BCC,0,free,23,23,82127,Bear_4_2,Bear,category2D,pancakes,pancakes,True,933
A126BDE73YE05F:3WT783CTPCWKJX1QYELIIJS86P9BCC,0,free,24,24,83925,Bear_6_2,Bear,category2D,waffles,pancakes,False,1320
A126BDE73YE05F:3WT783CTPCWKJX1QYELIIJS86P9BCC,0,free,25,25,86747,Bear_5_6,Bear,category2D,waffles,waffles,True,2178
A126BDE73YE05F:3WT783CTPCWKJX1QYELIIJS86P9BCC,0,free,26,26,90380,Bear_3_4,Bear,category2D,pancakes,waffles,False,1443
A126BDE73YE05F:3WT783CTPCWKJX1QYELIIJS86P9BCC,0,free,27,27,93392,Bear_5_1,Bear,category2D,waffles,pancakes,False,2109
A126BDE73YE05F:3WT783CTPCWKJX1QYELIIJS86P9BCC,0,free,28,28,97015,Bear_6_4,Bear,category2D,waffles,waffles,True,1439
A126BDE73YE05F:3WT783CTPCWKJX1QYELIIJS86P9BCC,0,free,29,29,99877,Bear_1_3,Bear,category2D,pancakes,waffles,False,1935
A126BDE73YE05F:3WT783CTPCWKJX1QYELIIJS86P9BCC,0,free,30,30,103294,Bear_6_4,Bear,category2D,waffles,waffles,True,26139
A126BDE73YE05F:3WT783CTPCWKJX1QYELIIJS86P9BCC,0,free,31,31,130471,Bear_2_1,Bear,category2D,pancakes,pancakes,True,13113
A126BDE73YE05F:3WT783CTPCWKJX1QYELIIJS86P9BCC,0,free,32,32,144376,Bear_6_4,Bear,category2D,waffles,pancakes,False,4555
A126BDE73YE05F:3WT783CTPCWKJX1QYELIIJS86P9BCC,0,free,33,33,150279,Bear_5_5,Bear,category2D,waffles,waffles,True,1577
A126BDE73YE05F:3WT783CTPCWKJX1QYELIIJS86P9BCC,0,free,34,34,152650,Bear_4_2,Bear,category2D,pancakes,pancakes,True,2164
A126BDE73YE05F:3WT783CTPCWKJX1QYELIIJS86P9BCC,0,free,35,35,156086,Bear_1_4,Bear,category2D,pancakes,waffles,False,1513
A126BDE73YE05F:3WT783CTPCWKJX1QYELIIJS86P9BCC,0,free,36,1,167946,GreenMonster_6_1,GreenMonster,category1D,oranges,oranges,True,2838
A126BDE73YE05F:3WT783CTPCWKJX1QYELIIJS86P9BCC,0,free,37,2,171636,GreenMonster_6_1,GreenMonster,category1D,oranges,oranges,True,1040
A126BDE73YE05F:3WT783CTPCWKJX1QYELIIJS86P9BCC,0,free,38,3,173700,GreenMonster_4_1,GreenMonster,category1D,oranges,oranges,True,1218
A126BDE73YE05F:3WT783CTPCWKJX1QYELIIJS86P9BCC,0,free,39,4,175724,GreenMonster_1_1,GreenMonster,category1D,bananas,bananas,True,1781
A126BDE73YE05F:3WT783CTPCWKJX1QYELIIJS86P9BCC,0,free,40,5,179158,GreenMonster_5_1,GreenMonster,category1D,oranges,oranges,True,1431
A126BDE73YE05F:3WT783CTPCWKJX1QYELIIJS86P9BCC,0,free,41,6,181717,GreenMonster_6_1,GreenMonster,category1D,oranges,oranges,True,725
A126BDE73YE05F:3WT783CTPCWKJX1QYELIIJS86P9BCC,0,free,42,7,183272,GreenMonster_5_1,GreenMonster,category1D,oranges,oranges,True,646
A126BDE73YE05F:3WT783CTPCWKJX1QYELIIJS86P9BCC,0,free,43,8,184929,GreenMonster_4_1,GreenMonster,category1D,oranges,oranges,True,572
A126BDE73YE05F:3WT783CTPCWKJX1QYELIIJS86P9BCC,0,free,44,9,186295,GreenMonster_6_1,GreenMonster,category1D,oranges,oranges,True,667
A126BDE73YE05F:3WT783CTPCWKJX1QYELIIJS86P9BCC,0,free,45,10,188040,GreenMonster_2_1,GreenMonster,category1D,bananas,bananas,True,1598
A126BDE73YE05F:3WT783CTPCWKJX1QYELIIJS86P9BCC,0,free,46,11,190679,GreenMonster_5_1,GreenMonster,category1D,oranges,oranges,True,1077
A126BDE73YE05F:3WT783CTPCWKJX1QYELIIJS86P9BCC,0,free,47,12,192665,GreenMonster_4_1,GreenMonster,category1D,oranges,oranges,True,680
A126BDE73YE05F:3WT783CTPCWKJX1QYELIIJS86P9BCC,0,free,48,13,194394,GreenMonster_4_1,GreenMonster,category1D,oranges,oranges,True,755
A126BDE73YE05F:3WT783CTPCWKJX1QYELIIJS86P9BCC,0,free,49,14,196015,GreenMonster_4_1,GreenMonster,category1D,oranges,oranges,True,803
A126BDE73YE05F:3WT783CTPCWKJX1QYELIIJS86P9BCC,0,free,50,15,197657,GreenMonster_6_1,GreenMonster,category1D,oranges,oranges,True,700
A126BDE73YE05F:3WT783CTPCWKJX1QYELIIJS86P9BCC,0,free,51,16,199146,GreenMonster_3_1,GreenMonster,category1D,oranges,oranges,True,1251
A126BDE73YE05F:3WT783CTPCWKJX1QYELIIJS86P9BCC,0,free,52,17,201245,GreenMonster_2_1,GreenMonster,category1D,bananas,oranges,False,726
A126BDE73YE05F:3WT783CTPCWKJX1QYELIIJS86P9BCC,0,free,53,18,203622,GreenMonster_1_1,GreenMonster,category1D,bananas,bananas,True,1276
A126BDE73YE05F:3WT783CTPCWKJX1QYELIIJS86P9BCC,0,free,54,19,205782,GreenMonster_5_1,GreenMonster,category1D,oranges,oranges,True,1221
A126BDE73YE05F:3WT783CTPCWKJX1QYELIIJS86P9BCC,0,free,55,20,207879,GreenMonster_4_1,GreenMonster,category1D,oranges,oranges,True,739
A126BDE73YE05F:3WT783CTPCWKJX1QYELIIJS86P9BCC,0,free,56,21,209421,GreenMonster_2_1,GreenMonster,category1D,bananas,oranges,False,1130
A126BDE73YE05F:3WT783CTPCWKJX1QYELIIJS86P9BCC,0,free,57,22,211838,GreenMonster_2_1,GreenMonster,category1D,bananas,bananas,True,1275
A126BDE73YE05F:3WT783CTPCWKJX1QYELIIJS86P9BCC,0,free,58,23,214212,GreenMonster_2_1,GreenMonster,category1D,bananas,bananas,True,931
A126BDE73YE05F:3WT783CTPCWKJX1QYELIIJS86P9BCC,0,free,59,24,216008,GreenMonster_5_1,GreenMonster,category1D,oranges,oranges,True,862
A126BDE73YE05F:3WT783CTPCWKJX1QYELIIJS86P9BCC,0,free,60,25,217670,GreenMonster_1_1,GreenMonster,category1D,bananas,bananas,True,1091
A126BDE73YE05F:3WT783CTPCWKJX1QYELIIJS86P9BCC,0,free,61,26,219562,GreenMonster_2_1,GreenMonster,category1D,bananas,bananas,True,1388
A126BDE73YE05F:3WT783CTPCWKJX1QYELIIJS86P9BCC,0,free,62,27,222511,GreenMonster_1_1,GreenMonster,category1D,bananas,bananas,True,1020
A126BDE73YE05F:3WT783CTPCWKJX1QYELIIJS86P9BCC,0,free,63,28,224323,GreenMonster_1_1,GreenMonster,category1D,bananas,bananas,True,9902
A126BDE73YE05F:3WT783CTPCWKJX1QYELIIJS86P9BCC,0,free,64,29,235225,GreenMonster_5_1,GreenMonster,category1D,oranges,oranges,True,1499
A126BDE73YE05F:3WT783CTPCWKJX1QYELIIJS86P9BCC,0,free,65,30,237723,GreenMonster_4_1,GreenMonster,category1D,oranges,oranges,True,915
A126BDE73YE05F:3WT783CTPCWKJX1QYELIIJS86P9BCC,0,free,66,31,239635,GreenMonster_1_1,GreenMonster,category1D,bananas,bananas,True,984
A126BDE73YE05F:3WT783CTPCWKJX1QYELIIJS86P9BCC,0,free,67,32,241767,GreenMonster_1_1,GreenMonster,category1D,bananas,bananas,True,948
A126BDE73YE05F:3WT783CTPCWKJX1QYELIIJS86P9BCC,0,free,68,33,244386,GreenMonster_2_1,GreenMonster,category1D,bananas,oranges,False,1514
A126BDE73YE05F:3WT783CTPCWKJX1QYELIIJS86P9BCC,0,free,69,34,247473,GreenMonster_5_1,GreenMonster,category1D,oranges,oranges,True,1014
A126BDE73YE05F:3WT783CTPCWKJX1QYELIIJS86P9BCC,0,free,70,35,249337,GreenMonster_4_1,GreenMonster,category1D,oranges,oranges,True,778
A126BDE73YE05F:3WT783CTPCWKJX1QYELIIJS86P9BCC,0,free,71,36,250985,GreenMonster_6_1,GreenMonster,category1D,oranges,oranges,True,7821
A126BDE73YE05F:3WT783CTPCWKJX1QYELIIJS86P9BCC,0,free,72,37,259597,GreenMonster_2_1,GreenMonster,category1D,bananas,bananas,True,2426
A126BDE73YE05F:3WT783CTPCWKJX1QYELIIJS86P9BCC,0,free,73,38,262842,GreenMonster_4_1,GreenMonster,category1D,oranges,oranges,True,1683
A126BDE73YE05F:3WT783CTPCWKJX1QYELIIJS86P9BCC,0,free,74,39,265316,GreenMonster_2_1,GreenMonster,category1D,bananas,oranges,False,943
A126BDE73YE05F:3WT783CTPCWKJX1QYELIIJS86P9BCC,0,free,75,40,268245,GreenMonster_6_1,GreenMonster,category1D,oranges,oranges,True,883
A126BDE73YE05F:3WT783CTPCWKJX1QYELIIJS86P9BCC,0,free,76,41,270102,GreenMonster_4_1,GreenMonster,category1D,oranges,oranges,True,941
A126BDE73YE05F:3WT783CTPCWKJX1QYELIIJS86P9BCC,0,free,77,42,272046,GreenMonster_6_1,GreenMonster,category1D,oranges,oranges,True,699
A126BDE73YE05F:3WT783CTPCWKJX1QYELIIJS86P9BCC,0,free,78,43,273568,GreenMonster_1_1,GreenMonster,category1D,bananas,bananas,True,1595
A126BDE73YE05F:3WT783CTPCWKJX1QYELIIJS86P9BCC,0,free,79,44,277640,GreenMonster_5_1,GreenMonster,category1D,oranges,oranges,True,8561
A126BDE73YE05F:3WT783CTPCWKJX1QYELIIJS86P9BCC,0,free,80,45,288469,GreenMonster_4_1,GreenMonster,category1D,oranges,oranges,True,805
A126BDE73YE05F:3WT783CTPCWKJX1QYELIIJS86P9BCC,0,free,81,46,290251,GreenMonster_5_1,GreenMonster,category1D,oranges,oranges,True,830
A126BDE73YE05F:3WT783CTPCWKJX1QYELIIJS86P9BCC,0,free,82,47,291889,GreenMonster_3_1,GreenMonster,category1D,oranges,oranges,True,1198
A126BDE73YE05F:3WT783CTPCWKJX1QYELIIJS86P9BCC,0,free,83,48,293947,GreenMonster_1_1,GreenMonster,category1D,bananas,bananas,True,1176
A126BDE73YE05F:3WT783CTPCWKJX1QYELIIJS86P9BCC,0,free,84,49,295909,GreenMonster_3_1,GreenMonster,category1D,oranges,oranges,True,1212
A126BDE73YE05F:3WT783CTPCWKJX1QYELIIJS86P9BCC,0,free,85,50,297927,GreenMonster_1_1,GreenMonster,category1D,bananas,bananas,True,1359
A126BDE73YE05F:3WT783CTPCWKJX1QYELIIJS86P9BCC,0,free,86,51,300342,GreenMonster_2_1,GreenMonster,category1D,bananas,bananas,True,2316
A126BDE73YE05F:3WT783CTPCWKJX1QYELIIJS86P9BCC,0,free,87,52,303465,GreenMonster_6_1,GreenMonster,category1D,oranges,oranges,True,1355
A126BDE73YE05F:3WT783CTPCWKJX1QYELIIJS86P9BCC,0,free,88,53,305628,GreenMonster_4_1,GreenMonster,category1D,oranges,oranges,True,7413
A126BDE73YE05F:3WT783CTPCWKJX1QYELIIJS86P9BCC,0,free,89,54,313955,GreenMonster_1_1,GreenMonster,category1D,bananas,bananas,True,1563
A126BDE73YE05F:3WT783CTPCWKJX1QYELIIJS86P9BCC,0,free,90,55,316325,GreenMonster_4_1,GreenMonster,category1D,oranges,oranges,True,1238
A126BDE73YE05F:3WT783CTPCWKJX1QYELIIJS86P9BCC,0,free,91,56,318369,GreenMonster_6_1,GreenMonster,category1D,oranges,oranges,True,883
A126BDE73YE05F:3WT783CTPCWKJX1QYELIIJS86P9BCC,0,free,92,57,320183,GreenMonster_1_1,GreenMonster,category1D,bananas,bananas,True,970
A126BDE73YE05F:3WT783CTPCWKJX1QYELIIJS86P9BCC,0,free,93,58,323146,GreenMonster_5_1,GreenMonster,category1D,oranges,oranges,True,8391
A126BDE73YE05F:3WT783CTPCWKJX1QYELIIJS86P9BCC,0,free,94,59,332950,GreenMonster_1_1,GreenMonster,category1D,bananas,bananas,True,1821
A126BDE73YE05F:3WT783CTPCWKJX1QYELIIJS86P9BCC,0,free,95,60,335606,GreenMonster_6_1,GreenMonster,category1D,oranges,oranges,True,7117
A126BDE73YE05F:3WT783CTPCWKJX1QYELIIJS86P9BCC,0,free,96,61,343872,GreenMonster_6_1,GreenMonster,category1D,oranges,oranges,True,4866
A126BDE73YE05F:3WT783CTPCWKJX1QYELIIJS86P9BCC,0,free,97,62,349697,GreenMonster_2_1,GreenMonster,category1D,bananas,bananas,True,1708
A126BDE73YE05F:3WT783CTPCWKJX1QYELIIJS86P9BCC,0,free,98,63,352196,GreenMonster_1_1,GreenMonster,category1D,bananas,bananas,True,784
A126BDE73YE05F:3WT783CTPCWKJX1QYELIIJS86P9BCC,0,free,99,64,353897,GreenMonster_3_1,GreenMonster,category1D,oranges,oranges,True,1156
A126BDE73YE05F:3WT783CTPCWKJX1QYELIIJS86P9BCC,0,free,100,65,355891,GreenMonster_6_1,GreenMonster,category1D,oranges,oranges,True,840
A126BDE73YE05F:3WT783CTPCWKJX1QYELIIJS86P9BCC,0,free,101,66,357704,GreenMonster_4_1,GreenMonster,category1D,oranges,oranges,True,903
A126BDE73YE05F:3WT783CTPCWKJX1QYELIIJS86P9BCC,0,free,102,67,359803,GreenMonster_6_1,GreenMonster,category1D,oranges,oranges,True,9271
A126BDE73YE05F:3WT783CTPCWKJX1QYELIIJS86P9BCC,0,free,103,68,370172,GreenMonster_1_1,GreenMonster,category1D,bananas,bananas,True,1716
A126BDE73YE05F:3WT783CTPCWKJX1QYELIIJS86P9BCC,0,free,104,69,372734,GreenMonster_6_1,GreenMonster,category1D,oranges,oranges,True,2191
A126BDE73YE05F:3WT783CTPCWKJX1QYELIIJS86P9BCC,0,free,105,70,375866,GreenMonster_1_1,GreenMonster,category1D,bananas,bananas,True,2568
A126BDE73YE05F:3WT783CTPCWKJX1QYELIIJS86P9BCC,0,free,106,71,379449,GreenMonster_1_1,GreenMonster,category1D,bananas,bananas,True,1707
A126BDE73YE05F:3WT783CTPCWKJX1QYELIIJS86P9BCC,0,free,107,72,382086,GreenMonster_3_1,GreenMonster,category1D,oranges,oranges,True,1888
A126BDE73YE05F:3WT783CTPCWKJX1QYELIIJS86P9BCC,0,free,108,73,384915,GreenMonster_5_1,GreenMonster,category1D,oranges,oranges,True,2690
A126BDE73YE05F:3WT783CTPCWKJX1QYELIIJS86P9BCC,0,free,109,74,388597,GreenMonster_2_1,GreenMonster,category1D,bananas,bananas,True,1989
A126BDE73YE05F:3WT783CTPCWKJX1QYELIIJS86P9BCC,0,free,110,75,391559,GreenMonster_1_1,GreenMonster,category1D,bananas,bananas,True,935
A126BDE73YE05F:3WT783CTPCWKJX1QYELIIJS86P9BCC,0,free,111,76,393291,GreenMonster_2_1,GreenMonster,category1D,bananas,oranges,False,8203
A126BDE73YE05F:3WT783CTPCWKJX1QYELIIJS86P9BCC,0,free,112,77,402799,GreenMonster_1_1,GreenMonster,category1D,bananas,bananas,True,1661
A126BDE73YE05F:3WT783CTPCWKJX1QYELIIJS86P9BCC,0,free,113,78,405338,GreenMonster_1_1,GreenMonster,category1D,bananas,bananas,True,1308
A126BDE73YE05F:3WT783CTPCWKJX1QYELIIJS86P9BCC,0,free,114,79,407434,GreenMonster_2_1,GreenMonster,category1D,bananas,bananas,True,1951
A126BDE73YE05F:3WT783CTPCWKJX1QYELIIJS86P9BCC,0,free,115,80,410368,GreenMonster_4_1,GreenMonster,category1D,oranges,oranges,True,1224
A126BDE73YE05F:3WT783CTPCWKJX1QYELIIJS86P9BCC,0,free,116,81,412550,GreenMonster_6_1,GreenMonster,category1D,oranges,oranges,True,852
A126BDE73YE05F:3WT783CTPCWKJX1QYELIIJS86P9BCC,0,free,117,82,414247,GreenMonster_5_1,GreenMonster,category1D,oranges,oranges,True,1199
A126BDE73YE05F:3WT783CTPCWKJX1QYELIIJS86P9BCC,0,free,118,83,417421,GreenMonster_3_1,GreenMonster,category1D,oranges,oranges,True,1184
A126BDE73YE05F:3WT783CTPCWKJX1QYELIIJS86P9BCC,0,free,119,84,419456,GreenMonster_5_1,GreenMonster,category1D,oranges,oranges,True,8476
A126BDE73YE05F:3WT783CTPCWKJX1QYELIIJS86P9BCC,0,free,120,85,429113,GreenMonster_2_1,GreenMonster,category1D,bananas,bananas,True,2029
A126BDE73YE05F:3WT783CTPCWKJX1QYELIIJS86P9BCC,0,free,121,86,432062,GreenMonster_5_1,GreenMonster,category1D,oranges,oranges,True,1192
A126BDE73YE05F:3WT783CTPCWKJX1QYELIIJS86P9BCC,0,free,122,87,434209,GreenMonster_1_1,GreenMonster,category1D,bananas,bananas,True,1266
A126BDE73YE05F:3WT783CTPCWKJX1QYELIIJS86P9BCC,0,free,123,88,439681,GreenMonster_1_1,GreenMonster,category1D,bananas,bananas,True,1057
A126BDE73YE05F:3WT783CTPCWKJX1QYELIIJS86P9BCC,0,free,124,89,441958,GreenMonster_5_1,GreenMonster,category1D,oranges,oranges,True,1056
A126BDE73YE05F:3WT783CTPCWKJX1QYELIIJS86P9BCC,0,free,125,90,444049,GreenMonster_1_1,GreenMonster,category1D,bananas,bananas,True,8881
A126BDE73YE05F:3WT783CTPCWKJX1QYELIIJS86P9BCC,0,free,126,91,453935,GreenMonster_5_1,GreenMonster,category1D,oranges,oranges,True,2142
A126BDE73YE05F:3WT783CTPCWKJX1QYELIIJS86P9BCC,0,free,127,92,457002,GreenMonster_5_1,GreenMonster,category1D,oranges,oranges,True,1205
A126BDE73YE05F:3WT783CTPCWKJX1QYELIIJS86P9BCC,0,free,128,93,459283,GreenMonster_1_1,GreenMonster,category1D,bananas,bananas,True,9653
A126BDE73YE05F:3WT783CTPCWKJX1QYELIIJS86P9BCC,0,free,129,94,469884,GreenMonster_5_1,GreenMonster,category1D,oranges,oranges,True,984
A126BDE73YE05F:3WT783CTPCWKJX1QYELIIJS86P9BCC,0,free,130,95,472467,GreenMonster_6_1,GreenMonster,category1D,oranges,oranges,True,1752
A126BDE73YE05F:3WT783CTPCWKJX1QYELIIJS86P9BCC,0,free,131,96,475012,GreenMonster_1_1,GreenMonster,category1D,bananas,bananas,True,1616
A126BDE73YE05F:3WT783CTPCWKJX1QYELIIJS86P9BCC,0,free,132,97,477515,GreenMonster_4_1,GreenMonster,category1D,oranges,oranges,True,1536
A126BDE73YE05F:3WT783CTPCWKJX1QYELIIJS86P9BCC,0,free,133,98,479832,GreenMonster_5_1,GreenMonster,category1D,oranges,oranges,True,1621
A126BDE73YE05F:3WT783CTPCWKJX1QYELIIJS86P9BCC,0,free,134,99,482321,GreenMonster_3_1,GreenMonster,category1D,oranges,oranges,True,1367
A126BDE73YE05F:3WT783CTPCWKJX1QYELIIJS86P9BCC,0,free,135,100,484639,GreenMonster_6_1,GreenMonster,category1D,oranges,oranges,True,751
A126BDE73YE05F:3WT783CTPCWKJX1QYELIIJS86P9BCC,0,free,136,101,486254,GreenMonster_3_1,GreenMonster,category1D,oranges,oranges,True,763
A126BDE73YE05F:3WT783CTPCWKJX1QYELIIJS86P9BCC,0,free,137,102,488109,GreenMonster_3_1,GreenMonster,category1D,oranges,oranges,True,763
A126BDE73YE05F:3WT783CTPCWKJX1QYELIIJS86P9BCC,0,free,138,103,489652,GreenMonster_5_1,GreenMonster,category1D,oranges,oranges,True,768
A126BDE73YE05F:3WT783CTPCWKJX1QYELIIJS86P9BCC,0,free,139,104,493180,GreenMonster_6_1,GreenMonster,category1D,oranges,oranges,True,830
A126BDE73YE05F:3WT783CTPCWKJX1QYELIIJS86P9BCC,0,free,140,105,495868,GreenMonster_6_1,GreenMonster,category1D,oranges,oranges,True,1218
A126BDE73YE05F:3WT783CTPCWKJX1QYELIIJS86P9BCC,0,free,141,106,497882,GreenMonster_5_1,GreenMonster,category1D,oranges,oranges,True,723
A126BDE73YE05F:3WT783CTPCWKJX1QYELIIJS86P9BCC,0,free,142,107,499419,GreenMonster_3_1,GreenMonster,category1D,oranges,oranges,True,938
A126BDE73YE05F:3WT783CTPCWKJX1QYELIIJS86P9BCC,0,free,143,108,501148,GreenMonster_4_1,GreenMonster,category1D,oranges,oranges,True,747
A126BDE73YE05F:3WT783CTPCWKJX1QYELIIJS86P9BCC,0,free,144,109,502879,GreenMonster_4_1,GreenMonster,category1D,oranges,oranges,True,646
A126BDE73YE05F:3WT783CTPCWKJX1QYELIIJS86P9BCC,0,free,145,110,505315,GreenMonster_4_1,GreenMonster,category1D,oranges,oranges,True,8401
A126BDE73YE05F:3WT783CTPCWKJX1QYELIIJS86P9BCC,0,free,146,111,514519,GreenMonster_3_1,GreenMonster,category1D,oranges,oranges,True,1272
A126BDE73YE05F:3WT783CTPCWKJX1QYELIIJS86P9BCC,0,free,147,112,516757,GreenMonster_1_1,GreenMonster,category1D,bananas,bananas,True,1402
A126BDE73YE05F:3WT783CTPCWKJX1QYELIIJS86P9BCC,0,free,148,113,519157,GreenMonster_4_1,GreenMonster,category1D,oranges,oranges,True,994
A126BDE73YE05F:3WT783CTPCWKJX1QYELIIJS86P9BCC,0,free,149,114,521073,GreenMonster_6_1,GreenMonster,category1D,oranges,oranges,True,684
A126BDE73YE05F:3WT783CTPCWKJX1QYELIIJS86P9BCC,0,free,150,115,522540,GreenMonster_3_1,GreenMonster,category1D,oranges,oranges,True,765
A126BDE73YE05F:3WT783CTPCWKJX1QYELIIJS86P9BCC,0,free,151,116,525440,GreenMonster_2_1,GreenMonster,category1D,bananas,oranges,False,1510
A126BDE73YE05F:3WT783CTPCWKJX1QYELIIJS86P9BCC,0,free,152,117,528465,GreenMonster_3_1,GreenMonster,category1D,oranges,oranges,True,1204
A126BDE73YE05F:3WT783CTPCWKJX1QYELIIJS86P9BCC,0,free,153,118,530632,GreenMonster_4_1,GreenMonster,category1D,oranges,oranges,True,736
A126BDE73YE05F:3WT783CTPCWKJX1QYELIIJS86P9BCC,0,free,154,119,532295,GreenMonster_3_1,GreenMonster,category1D,oranges,oranges,True,1000
A126BDE73YE05F:3WT783CTPCWKJX1QYELIIJS86P9BCC,0,free,155,120,534316,GreenMonster_4_1,GreenMonster,category1D,oranges,oranges,True,1297
A126BDE73YE05F:3WT783CTPCWKJX1QYELIIJS86P9BCC,0,free,156,121,536604,GreenMonster_2_1,GreenMonster,category1D,bananas,bananas,True,1474
A126BDE73YE05F:3WT783CTPCWKJX1QYELIIJS86P9BCC,0,free,157,122,539236,GreenMonster_6_1,GreenMonster,category1D,oranges,oranges,True,781
A126BDE73YE05F:3WT783CTPCWKJX1QYELIIJS86P9BCC,0,free,158,123,540823,GreenMonster_4_1,GreenMonster,category1D,oranges,oranges,True,10611
A126BDE73YE05F:3WT783CTPCWKJX1QYELIIJS86P9BCC,0,free,159,124,552646,GreenMonster_3_1,GreenMonster,category1D,oranges,oranges,True,1163
A126BDE73YE05F:3WT783CTPCWKJX1QYELIIJS86P9BCC,0,free,160,125,554605,GreenMonster_6_1,GreenMonster,category1D,oranges,oranges,True,808
A126BDE73YE05F:3WT783CTPCWKJX1QYELIIJS86P9BCC,0,free,161,126,557044,GreenMonster_5_1,GreenMonster,category1D,oranges,oranges,True,1548
A126BDE73YE05F:3WT783CTPCWKJX1QYELIIJS86P9BCC,0,free,162,127,559405,GreenMonster_5_1,GreenMonster,category1D,oranges,oranges,True,787
A126BDE73YE05F:3WT783CTPCWKJX1QYELIIJS86P9BCC,0,free,163,128,561034,GreenMonster_3_1,GreenMonster,category1D,oranges,bananas,False,1613
A126BDE73YE05F:3WT783CTPCWKJX1QYELIIJS86P9BCC,0,free,164,129,564084,GreenMonster_6_1,GreenMonster,category1D,oranges,oranges,True,932
A126BDE73YE05F:3WT783CTPCWKJX1QYELIIJS86P9BCC,0,free,165,130,565951,GreenMonster_4_1,GreenMonster,category1D,oranges,oranges,True,826
A126BDE73YE05F:3WT783CTPCWKJX1QYELIIJS86P9BCC,0,free,166,131,568893,GreenMonster_1_1,GreenMonster,category1D,bananas,bananas,True,8034
A126BDE73YE05F:3WT783CTPCWKJX1QYELIIJS86P9BCC,0,free,167,132,578853,GreenMonster_1_1,GreenMonster,category1D,bananas,bananas,True,902
A126BDE73YE05F:3WT783CTPCWKJX1QYELIIJS86P9BCC,0,free,168,133,580618,GreenMonster_5_1,GreenMonster,category1D,oranges,oranges,True,1121
A126BDE73YE05F:3WT783CTPCWKJX1QYELIIJS86P9BCC,0,free,169,134,582668,GreenMonster_6_1,GreenMonster,category1D,oranges,oranges,True,863
A126BDE73YE05F:3WT783CTPCWKJX1QYELIIJS86P9BCC,0,free,170,135,584311,GreenMonster_3_1,GreenMonster,category1D,oranges,bananas,False,1481
A126BDE73YE05F:3WT783CTPCWKJX1QYELIIJS86P9BCC,0,free,171,136,587314,GreenMonster_6_1,GreenMonster,category1D,oranges,oranges,True,1757
A126BDE73YE05F:3WT783CTPCWKJX1QYELIIJS86P9BCC,0,free,172,137,590215,GreenMonster_2_1,GreenMonster,category1D,bananas,bananas,True,1453
A126BDE73YE05F:3WT783CTPCWKJX1QYELIIJS86P9BCC,0,free,173,138,592454,GreenMonster_5_1,GreenMonster,category1D,oranges,oranges,True,1148
A126BDE73YE05F:3WT783CTPCWKJX1QYELIIJS86P9BCC,0,free,174,139,594494,GreenMonster_1_1,GreenMonster,category1D,bananas,bananas,True,6928
A126BDE73YE05F:3WT783CTPCWKJX1QYELIIJS86P9BCC,0,free,175,140,602277,GreenMonster_3_1,GreenMonster,category1D,oranges,oranges,True,4400
A126BDE73YE05F:3WT783CTPCWKJX1QYELIIJS86P9BCC,0,free,176,141,607534,GreenMonster_5_1,GreenMonster,category1D,oranges,oranges,True,3108
A126BDE73YE05F:3WT783CTPCWKJX1QYELIIJS86P9BCC,0,free,177,142,612033,GreenMonster_5_1,GreenMonster,category1D,oranges,oranges,True,973
A126BDE73YE05F:3WT783CTPCWKJX1QYELIIJS86P9BCC,0,free,178,143,614152,GreenMonster_3_1,GreenMonster,category1D,oranges,oranges,True,1657
A126BDE73YE05F:3WT783CTPCWKJX1QYELIIJS86P9BCC,0,free,179,144,616781,GreenMonster_4_1,GreenMonster,category1D,oranges,oranges,True,979
A126BDE73YE05F:3WT783CTPCWKJX1QYELIIJS86P9BCC,0,free,180,145,618762,GreenMonster_2_1,GreenMonster,category1D,bananas,bananas,True,1403
A126BDE73YE05F:3WT783CTPCWKJX1QYELIIJS86P9BCC,0,free,181,146,621705,GreenMonster_4_1,GreenMonster,category1D,oranges,oranges,True,940
A126BDE73YE05F:3WT783CTPCWKJX1QYELIIJS86P9BCC,0,free,182,147,623759,GreenMonster_1_1,GreenMonster,category1D,bananas,bananas,True,10662
A126BDE73YE05F:3WT783CTPCWKJX1QYELIIJS86P9BCC,0,free,183,148,635276,GreenMonster_2_1,GreenMonster,category1D,bananas,bananas,True,1312
A126BDE73YE05F:3WT783CTPCWKJX1QYELIIJS86P9BCC,0,free,184,149,637551,GreenMonster_5_1,GreenMonster,category1D,oranges,oranges,True,1067
A126BDE73YE05F:3WT783CTPCWKJX1QYELIIJS86P9BCC,0,free,185,150,639854,GreenMonster_1_1,GreenMonster,category1D,bananas,bananas,True,982
A126BDE73YE05F:3WT783CTPCWKJX1QYELIIJS86P9BCC,0,free,186,151,641941,GreenMonster_5_1,GreenMonster,category1D,oranges,oranges,True,3294
A126BDE73YE05F:3WT783CTPCWKJX1QYELIIJS86P9BCC,0,free,187,152,646578,GreenMonster_4_1,GreenMonster,category1D,oranges,oranges,True,1041
A126BDE73YE05F:3WT783CTPCWKJX1QYELIIJS86P9BCC,0,free,188,153,648534,GreenMonster_1_1,GreenMonster,category1D,bananas,bananas,True,1254
A126BDE73YE05F:3WT783CTPCWKJX1QYELIIJS86P9BCC,0,free,189,154,651000,GreenMonster_6_1,GreenMonster,category1D,oranges,oranges,True,957
A126BDE73YE05F:3WT783CTPCWKJX1QYELIIJS86P9BCC,0,free,190,155,653047,GreenMonster_4_1,GreenMonster,category1D,oranges,oranges,True,673
A126BDE73YE05F:3WT783CTPCWKJX1QYELIIJS86P9BCC,0,free,191,156,655748,GreenMonster_5_1,GreenMonster,category1D,oranges,oranges,True,906
A126BDE73YE05F:3WT783CTPCWKJX1QYELIIJS86P9BCC,0,free,192,157,658529,GreenMonster_5_1,GreenMonster,category1D,oranges,oranges,True,707
A126BDE73YE05F:3WT783CTPCWKJX1QYELIIJS86P9BCC,0,free,193,158,660202,GreenMonster_6_1,GreenMonster,category1D,oranges,oranges,True,993
A126BDE73YE05F:3WT783CTPCWKJX1QYELIIJS86P9BCC,0,free,194,159,662247,GreenMonster_1_1,GreenMonster,category1D,bananas,bananas,True,1013
A126BDE73YE05F:3WT783CTPCWKJX1QYELIIJS86P9BCC,0,free,195,160,664272,GreenMonster_1_1,GreenMonster,category1D,bananas,bananas,True,7353
A126BDE73YE05F:3WT783CTPCWKJX1QYELIIJS86P9BCC,0,free,196,161,672433,GreenMonster_5_1,GreenMonster,category1D,oranges,oranges,True,1486
A126BDE73YE05F:3WT783CTPCWKJX1QYELIIJS86P9BCC,0,free,197,162,674714,GreenMonster_5_1,GreenMonster,category1D,oranges,oranges,True,899
A126BDE73YE05F:3WT783CTPCWKJX1QYELIIJS86P9BCC,0,free,198,163,676415,GreenMonster_2_1,GreenMonster,category1D,bananas,bananas,True,2061
A126BDE73YE05F:3WT783CTPCWKJX1QYELIIJS86P9BCC,0,free,199,164,679265,GreenMonster_6_1,GreenMonster,category1D,oranges,oranges,True,999
A126BDE73YE05F:3WT783CTPCWKJX1QYELIIJS86P9BCC,0,free,200,165,681085,GreenMonster_2_1,GreenMonster,category1D,bananas,bananas,True,1273
A126BDE73YE05F:3WT783CTPCWKJX1QYELIIJS86P9BCC,0,free,201,166,683382,GreenMonster_3_1,GreenMonster,category1D,oranges,oranges,True,1861
A126BDE73YE05F:3WT783CTPCWKJX1QYELIIJS86P9BCC,0,free,202,167,686039,GreenMonster_6_1,GreenMonster,category1D,oranges,oranges,True,777
A126BDE73YE05F:3WT783CTPCWKJX1QYELIIJS86P9BCC,0,free,203,168,687640,GreenMonster_3_1,GreenMonster,category1D,oranges,oranges,True,1305
A126BDE73YE05F:3WT783CTPCWKJX1QYELIIJS86P9BCC,0,free,204,169,689926,GreenMonster_3_1,GreenMonster,category1D,oranges,oranges,True,733
A126BDE73YE05F:3WT783CTPCWKJX1QYELIIJS86P9BCC,0,free,205,170,691774,GreenMonster_5_1,GreenMonster,category1D,oranges,oranges,True,1294
A126BDE73YE05F:3WT783CTPCWKJX1QYELIIJS86P9BCC,0,free,206,171,694157,GreenMonster_4_1,GreenMonster,category1D,oranges,oranges,True,887
A126BDE73YE05F:3WT783CTPCWKJX1QYELIIJS86P9BCC,0,free,207,172,695844,GreenMonster_1_1,GreenMonster,category1D,bananas,bananas,True,1637
A126BDE73YE05F:3WT783CTPCWKJX1QYELIIJS86P9BCC,0,free,208,173,698460,GreenMonster_3_1,GreenMonster,category1D,oranges,oranges,True,8042
A126BDE73YE05F:3WT783CTPCWKJX1QYELIIJS86P9BCC,0,free,209,174,707308,GreenMonster_3_1,GreenMonster,category1D,oranges,oranges,True,763
A126BDE73YE05F:3WT783CTPCWKJX1QYELIIJS86P9BCC,0,free,210,175,709151,GreenMonster_2_1,GreenMonster,category1D,bananas,bananas,True,3653
A126BDE73YE05F:3WT783CTPCWKJX1QYELIIJS86P9BCC,0,free,211,176,714020,GreenMonster_1_1,GreenMonster,category1D,bananas,bananas,True,1052
A126BDE73YE05F:3WT783CTPCWKJX1QYELIIJS86P9BCC,0,free,212,177,716096,GreenMonster_6_1,GreenMonster,category1D,oranges,oranges,True,1191
A126BDE73YE05F:3WT783CTPCWKJX1QYELIIJS86P9BCC,0,free,213,178,718212,GreenMonster_2_1,GreenMonster,category1D,bananas,bananas,True,1591
A126BDE73YE05F:3WT783CTPCWKJX1QYELIIJS86P9BCC,0,free,214,179,721680,GreenMonster_5_1,GreenMonster,category1D,oranges,oranges,True,1369
A126BDE73YE05F:3WT783CTPCWKJX1QYELIIJS86P9BCC,0,free,215,180,723916,GreenMonster_3_1,GreenMonster,category1D,oranges,oranges,True,864
A126BDE73YE05F:3WT783CTPCWKJX1QYELIIJS86P9BCC,0,free,216,181,725565,GreenMonster_5_1,GreenMonster,category1D,oranges,oranges,True,741
A126BDE73YE05F:3WT783CTPCWKJX1QYELIIJS86P9BCC,0,free,217,182,727357,GreenMonster_1_1,GreenMonster,category1D,bananas,bananas,True,884
A126BDE73YE05F:3WT783CTPCWKJX1QYELIIJS86P9BCC,0,free,218,183,729201,GreenMonster_4_1,GreenMonster,category1D,oranges,oranges,True,10274
A126BDE73YE05F:3WT783CTPCWKJX1QYELIIJS86P9BCC,0,free,219,184,740276,GreenMonster_3_1,GreenMonster,category1D,oranges,oranges,True,712
A126BDE73YE05F:3WT783CTPCWKJX1QYELIIJS86P9BCC,0,free,220,185,741834,GreenMonster_1_1,GreenMonster,category1D,bananas,bananas,True,1605
A126BDE73YE05F:3WT783CTPCWKJX1QYELIIJS86P9BCC,0,free,221,186,744370,GreenMonster_2_1,GreenMonster,category1D,bananas,bananas,True,1493
A126BDE73YE05F:3WT783CTPCWKJX1QYELIIJS86P9BCC,0,free,222,187,746715,GreenMonster_2_1,GreenMonster,category1D,bananas,bananas,True,1138
A126BDE73YE05F:3WT783CTPCWKJX1QYELIIJS86P9BCC,0,free,223,188,748723,GreenMonster_5_1,GreenMonster,category1D,oranges,oranges,True,669
A126BDE73YE05F:3WT783CTPCWKJX1QYELIIJS86P9BCC,0,free,224,189,750176,GreenMonster_5_1,GreenMonster,category1D,oranges,oranges,True,594
A126BDE73YE05F:3WT783CTPCWKJX1QYELIIJS86P9BCC,0,free,225,190,752418,GreenMonster_6_1,GreenMonster,category1D,oranges,oranges,True,1303
A126BDE73YE05F:3WT783CTPCWKJX1QYELIIJS86P9BCC,0,free,226,191,754669,GreenMonster_6_1,GreenMonster,category1D,oranges,oranges,True,623
A126BDE73YE05F:3WT783CTPCWKJX1QYELIIJS86P9BCC,0,free,227,192,756132,GreenMonster_3_1,GreenMonster,category1D,oranges,oranges,True,8168
A126BDE73YE05F:3WT783CTPCWKJX1QYELIIJS86P9BCC,0,free,228,193,765082,GreenMonster_4_1,GreenMonster,category1D,oranges,oranges,True,663
A126BDE73YE05F:3WT783CTPCWKJX1QYELIIJS86P9BCC,0,free,229,194,766898,GreenMonster_1_1,GreenMonster,category1D,bananas,bananas,True,1432
A126BDE73YE05F:3WT783CTPCWKJX1QYELIIJS86P9BCC,0,free,230,195,769126,GreenMonster_6_1,GreenMonster,category1D,oranges,oranges,True,904
A126BDE73YE05F:3WT783CTPCWKJX1QYELIIJS86P9BCC,0,free,231,196,771084,GreenMonster_2_1,GreenMonster,category1D,bananas,bananas,True,1146
A126BDE73YE05F:3WT783CTPCWKJX1QYELIIJS86P9BCC,0,free,232,197,773108,GreenMonster_3_1,GreenMonster,category1D,oranges,oranges,True,1313
A126BDE73YE05F:3WT783CTPCWKJX1QYELIIJS86P9BCC,0,free,233,198,776352,GreenMonster_4_1,GreenMonster,category1D,oranges,oranges,True,1062
A126BDE73YE05F:3WT783CTPCWKJX1QYELIIJS86P9BCC,0,free,234,199,778241,GreenMonster_3_1,GreenMonster,category1D,oranges,oranges,True,785
A126BDE73YE05F:3WT783CTPCWKJX1QYELIIJS86P9BCC,0,free,235,200,780056,GreenMonster_5_1,GreenMonster,category1D,oranges,oranges,True,5548
A126BDE73YE05F:3WT783CTPCWKJX1QYELIIJS86P9BCC,0,free,236,201,787646,GreenMonster_6_1,GreenMonster,category1D,oranges,oranges,True,827
A126BDE73YE05F:3WT783CTPCWKJX1QYELIIJS86P9BCC,0,free,237,202,789477,GreenMonster_6_1,GreenMonster,category1D,oranges,oranges,True,781
A126BDE73YE05F:3WT783CTPCWKJX1QYELIIJS86P9BCC,0,free,238,203,791459,GreenMonster_6_1,GreenMonster,category1D,oranges,oranges,True,745
A126BDE73YE05F:3WT783CTPCWKJX1QYELIIJS86P9BCC,0,free,239,204,793008,GreenMonster_3_1,GreenMonster,category1D,oranges,bananas,False,1385
A126BDE73YE05F:3WT783CTPCWKJX1QYELIIJS86P9BCC,0,free,240,205,795785,GreenMonster_1_1,GreenMonster,category1D,bananas,bananas,True,1143
A126BDE73YE05F:3WT783CTPCWKJX1QYELIIJS86P9BCC,0,free,241,206,798539,GreenMonster_6_1,GreenMonster,category1D,oranges,oranges,True,1278
A126BDE73YE05F:3WT783CTPCWKJX1QYELIIJS86P9BCC,0,free,242,207,800602,GreenMonster_6_1,GreenMonster,category1D,oranges,oranges,True,685
A126BDE73YE05F:3WT783CTPCWKJX1QYELIIJS86P9BCC,0,free,243,208,802161,GreenMonster_6_1,GreenMonster,category1D,oranges,oranges,True,595
A126BDE73YE05F:3WT783CTPCWKJX1QYELIIJS86P9BCC,0,free,244,209,803825,GreenMonster_5_1,GreenMonster,category1D,oranges,oranges,True,764
A126BDE73YE05F:3WT783CTPCWKJX1QYELIIJS86P9BCC,0,free,245,210,805392,GreenMonster_5_1,GreenMonster,category1D,oranges,oranges,True,618
A126BDE73YE05F:3WT783CTPCWKJX1QYELIIJS86P9BCC,0,free,246,211,807059,GreenMonster_5_1,GreenMonster,category1D,oranges,oranges,True,589
A126BDE73YE05F:3WT783CTPCWKJX1QYELIIJS86P9BCC,0,free,247,212,808461,GreenMonster_1_1,GreenMonster,category1D,bananas,bananas,True,1291
A126BDE73YE05F:3WT783CTPCWKJX1QYELIIJS86P9BCC,0,free,248,213,810755,GreenMonster_3_1,GreenMonster,category1D,oranges,oranges,True,867
A126BDE73YE05F:3WT783CTPCWKJX1QYELIIJS86P9BCC,0,free,249,214,812697,GreenMonster_1_1,GreenMonster,category1D,bananas,bananas,True,935
A126BDE73YE05F:3WT783CTPCWKJX1QYELIIJS86P9BCC,0,free,250,215,814669,GreenMonster_1_1,GreenMonster,category1D,bananas,bananas,True,909
A12QNNTNQOEQJG:31QTRG6Q2USZQU35DBL8AUPGQIZYPN,0,free,1,1,2503,Squid_5_1,Squid,category1D,waffles,pancakes,False,3784
A12QNNTNQOEQJG:31QTRG6Q2USZQU35DBL8AUPGQIZYPN,0,free,2,2,7578,Squid_6_1,Squid,category1D,waffles,waffles,True,1307
A12QNNTNQOEQJG:31QTRG6Q2USZQU35DBL8AUPGQIZYPN,0,free,3,3,9672,Squid_2_1,Squid,category1D,pancakes,waffles,False,1327
A12QNNTNQOEQJG:31QTRG6Q2USZQU35DBL8AUPGQIZYPN,0,free,4,4,12268,Squid_6_1,Squid,category1D,waffles,waffles,True,551
A12QNNTNQOEQJG:31QTRG6Q2USZQU35DBL8AUPGQIZYPN,0,free,5,5,13577,Squid_1_1,Squid,category1D,pancakes,pancakes,True,1372
A12QNNTNQOEQJG:31QTRG6Q2USZQU35DBL8AUPGQIZYPN,0,free,6,6,15727,Squid_5_1,Squid,category1D,waffles,waffles,True,1915
A12QNNTNQOEQJG:31QTRG6Q2USZQU35DBL8AUPGQIZYPN,0,free,7,7,18404,Squid_4_1,Squid,category1D,waffles,waffles,True,3920
A12QNNTNQOEQJG:31QTRG6Q2USZQU35DBL8AUPGQIZYPN,0,free,8,8,23090,Squid_4_1,Squid,category1D,waffles,waffles,True,1195
A12QNNTNQOEQJG:31QTRG6Q2USZQU35DBL8AUPGQIZYPN,0,free,9,9,25046,Squid_1_1,Squid,category1D,pancakes,pancakes,True,2662
A12QNNTNQOEQJG:31QTRG6Q2USZQU35DBL8AUPGQIZYPN,0,free,10,1,32309,GreenMonster_3_1,GreenMonster,categoryRandom,broccoli,carrot,False,2066
A12QNNTNQOEQJG:31QTRG6Q2USZQU35DBL8AUPGQIZYPN,0,free,11,2,35636,GreenMonster_2_6,GreenMonster,categoryRandom,broccoli,carrot,False,1341
A12QNNTNQOEQJG:31QTRG6Q2USZQU35DBL8AUPGQIZYPN,0,free,12,3,38237,GreenMonster_3_6,GreenMonster,categoryRandom,carrot,broccoli,False,1708
A12QNNTNQOEQJG:31QTRG6Q2USZQU35DBL8AUPGQIZYPN,0,free,13,4,41204,GreenMonster_2_1,GreenMonster,categoryRandom,carrot,carrot,True,591
A12QNNTNQOEQJG:31QTRG6Q2USZQU35DBL8AUPGQIZYPN,0,free,14,5,42556,GreenMonster_2_2,GreenMonster,categoryRandom,carrot,carrot,True,325
A12QNNTNQOEQJG:31QTRG6Q2USZQU35DBL8AUPGQIZYPN,0,free,15,6,43641,GreenMonster_3_1,GreenMonster,categoryRandom,carrot,carrot,True,610
A12QNNTNQOEQJG:31QTRG6Q2USZQU35DBL8AUPGQIZYPN,0,free,16,7,45014,GreenMonster_3_5,GreenMonster,categoryRandom,broccoli,carrot,False,669
A12QNNTNQOEQJG:31QTRG6Q2USZQU35DBL8AUPGQIZYPN,0,free,17,8,46941,GreenMonster_3_6,GreenMonster,categoryRandom,carrot,carrot,True,632
A12QNNTNQOEQJG:31QTRG6Q2USZQU35DBL8AUPGQIZYPN,0,free,18,9,48331,GreenMonster_3_6,GreenMonster,categoryRandom,broccoli,carrot,False,1061
A12QNNTNQOEQJG:31QTRG6Q2USZQU35DBL8AUPGQIZYPN,0,free,19,10,50650,GreenMonster_1_4,GreenMonster,categoryRandom,carrot,carrot,True,784
A12QNNTNQOEQJG:31QTRG6Q2USZQU35DBL8AUPGQIZYPN,0,free,20,11,52194,GreenMonster_1_2,GreenMonster,categoryRandom,broccoli,carrot,False,1807
A12QNNTNQOEQJG:31QTRG6Q2USZQU35DBL8AUPGQIZYPN,0,free,21,12,55261,GreenMonster_2_1,GreenMonster,categoryRandom,broccoli,broccoli,True,1251
A12QNNTNQOEQJG:31QTRG6Q2USZQU35DBL8AUPGQIZYPN,0,free,22,13,57271,GreenMonster_4_1,GreenMonster,categoryRandom,carrot,carrot,True,2604
A12QNNTNQOEQJG:31QTRG6Q2USZQU35DBL8AUPGQIZYPN,0,free,23,14,60632,GreenMonster_3_3,GreenMonster,categoryRandom,carrot,broccoli,False,1723
A12QNNTNQOEQJG:31QTRG6Q2USZQU35DBL8AUPGQIZYPN,0,free,24,15,63612,GreenMonster_3_2,GreenMonster,categoryRandom,broccoli,carrot,False,2044
A12QNNTNQOEQJG:31QTRG6Q2USZQU35DBL8AUPGQIZYPN,0,free,25,16,66925,GreenMonster_4_1,GreenMonster,categoryRandom,carrot,carrot,True,1890
A12QNNTNQOEQJG:31QTRG6Q2USZQU35DBL8AUPGQIZYPN,0,free,26,17,69576,GreenMonster_5_2,GreenMonster,categoryRandom,carrot,carrot,True,1333
A12QNNTNQOEQJG:31QTRG6Q2USZQU35DBL8AUPGQIZYPN,0,free,27,18,71707,GreenMonster_5_4,GreenMonster,categoryRandom,broccoli,carrot,False,1298
A12QNNTNQOEQJG:31QTRG6Q2USZQU35DBL8AUPGQIZYPN,0,free,28,19,74264,GreenMonster_5_3,GreenMonster,categoryRandom,broccoli,broccoli,True,2063
A12QNNTNQOEQJG:31QTRG6Q2USZQU35DBL8AUPGQIZYPN,0,free,29,20,77093,GreenMonster_1_6,GreenMonster,categoryRandom,carrot,carrot,True,1711
A12QNNTNQOEQJG:31QTRG6Q2USZQU35DBL8AUPGQIZYPN,0,free,30,21,79563,GreenMonster_1_3,GreenMonster,categoryRandom,carrot,carrot,True,2203
A12QNNTNQOEQJG:31QTRG6Q2USZQU35DBL8AUPGQIZYPN,0,free,31,22,82543,GreenMonster_6_4,GreenMonster,categoryRandom,broccoli,broccoli,True,1531
A12QNNTNQOEQJG:31QTRG6Q2USZQU35DBL8AUPGQIZYPN,0,free,32,1,87546,Bear_4_5,Bear,categoryIgnore1D,grilled_cheese,tacos,False,1873
A12QNNTNQOEQJG:31QTRG6Q2USZQU35DBL8AUPGQIZYPN,0,free,33,2,90676,Bear_6_4,Bear,categoryIgnore1D,grilled_cheese,tacos,False,523
A12QNNTNQOEQJG:31QTRG6Q2USZQU35DBL8AUPGQIZYPN,0,free,34,3,92484,Bear_4_3,Bear,categoryIgnore1D,grilled_cheese,tacos,False,1101
A12QNNTNQOEQJG:31QTRG6Q2USZQU35DBL8AUPGQIZYPN,0,free,35,4,94842,Bear_5_1,Bear,categoryIgnore1D,grilled_cheese,tacos,False,1685
A12QNNTNQOEQJG:31QTRG6Q2USZQU35DBL8AUPGQIZYPN,0,free,36,5,97785,Bear_4_3,Bear,categoryIgnore1D,grilled_cheese,grilled_cheese,True,1374
A12QNNTNQOEQJG:31QTRG6Q2USZQU35DBL8AUPGQIZYPN,0,free,37,6,99917,Bear_4_6,Bear,categoryIgnore1D,grilled_cheese,grilled_cheese,True,551
A12QNNTNQOEQJG:31QTRG6Q2USZQU35DBL8AUPGQIZYPN,0,free,38,7,101226,Bear_2_1,Bear,categoryIgnore1D,tacos,grilled_cheese,False,384
A12QNNTNQOEQJG:31QTRG6Q2USZQU35DBL8AUPGQIZYPN,0,free,39,8,102875,Bear_1_1,Bear,categoryIgnore1D,tacos,grilled_cheese,False,571
A12QNNTNQOEQJG:31QTRG6Q2USZQU35DBL8AUPGQIZYPN,0,free,40,9,104710,Bear_3_6,Bear,categoryIgnore1D,tacos,grilled_cheese,False,700
A12QNNTNQOEQJG:31QTRG6Q2USZQU35DBL8AUPGQIZYPN,0,free,41,10,106687,Bear_4_3,Bear,categoryIgnore1D,grilled_cheese,grilled_cheese,True,596
A12QNNTNQOEQJG:31QTRG6Q2USZQU35DBL8AUPGQIZYPN,0,free,42,11,108066,Bear_1_2,Bear,categoryIgnore1D,tacos,grilled_cheese,False,672
A12QNNTNQOEQJG:31QTRG6Q2USZQU35DBL8AUPGQIZYPN,0,free,43,12,110002,Bear_2_2,Bear,categoryIgnore1D,tacos,grilled_cheese,False,922
A12QNNTNQOEQJG:31QTRG6Q2USZQU35DBL8AUPGQIZYPN,0,free,44,13,112183,Bear_5_6,Bear,categoryIgnore1D,grilled_cheese,grilled_cheese,True,339
A12QNNTNQOEQJG:31QTRG6Q2USZQU35DBL8AUPGQIZYPN,0,free,45,14,113289,Bear_6_6,Bear,categoryIgnore1D,grilled_cheese,tacos,False,956
A12QNNTNQOEQJG:31QTRG6Q2USZQU35DBL8AUPGQIZYPN,0,free,46,15,115503,Bear_2_5,Bear,categoryIgnore1D,tacos,tacos,True,401
A12QNNTNQOEQJG:31QTRG6Q2USZQU35DBL8AUPGQIZYPN,0,free,47,16,116667,Bear_1_2,Bear,categoryIgnore1D,tacos,tacos,True,969
A12QNNTNQOEQJG:31QTRG6Q2USZQU35DBL8AUPGQIZYPN,0,free,48,17,118394,Bear_1_1,Bear,categoryIgnore1D,tacos,tacos,True,745
A12QNNTNQOEQJG:31QTRG6Q2USZQU35DBL8AUPGQIZYPN,0,free,49,18,119921,Bear_1_3,Bear,categoryIgnore1D,tacos,tacos,True,1299
A12QNNTNQOEQJG:31QTRG6Q2USZQU35DBL8AUPGQIZYPN,0,free,50,19,121989,Bear_3_5,Bear,categoryIgnore1D,tacos,grilled_cheese,False,989
A12QNNTNQOEQJG:31QTRG6Q2USZQU35DBL8AUPGQIZYPN,0,free,51,20,124238,Bear_4_4,Bear,categoryIgnore1D,grilled_cheese,grilled_cheese,True,656
A12QNNTNQOEQJG:31QTRG6Q2USZQU35DBL8AUPGQIZYPN,0,free,52,21,125653,Bear_4_6,Bear,categoryIgnore1D,grilled_cheese,grilled_cheese,True,781
A12QNNTNQOEQJG:31QTRG6Q2USZQU35DBL8AUPGQIZYPN,0,free,53,22,127196,Bear_6_2,Bear,categoryIgnore1D,grilled_cheese,grilled_cheese,True,1028
A12QNNTNQOEQJG:31QTRG6Q2USZQU35DBL8AUPGQIZYPN,0,free,54,23,128999,Bear_2_2,Bear,categoryIgnore1D,tacos,tacos,True,1347
A12QNNTNQOEQJG:31QTRG6Q2USZQU35DBL8AUPGQIZYPN,0,free,55,24,131107,Bear_3_4,Bear,categoryIgnore1D,tacos,tacos,True,855
A12QNNTNQOEQJG:31QTRG6Q2USZQU35DBL8AUPGQIZYPN,0,free,56,25,132727,Bear_3_1,Bear,categoryIgnore1D,tacos,tacos,True,962
A12QNNTNQOEQJG:31QTRG6Q2USZQU35DBL8AUPGQIZYPN,0,free,57,26,134460,Bear_4_4,Bear,categoryIgnore1D,grilled_cheese,grilled_cheese,True,1504
A12QNNTNQOEQJG:31QTRG6Q2USZQU35DBL8AUPGQIZYPN,0,free,58,27,136758,Bear_6_6,Bear,categoryIgnore1D,grilled_cheese,grilled_cheese,True,931
A12QNNTNQOEQJG:31QTRG6Q2USZQU35DBL8AUPGQIZYPN,0,free,59,28,138447,Bear_2_6,Bear,categoryIgnore1D,tacos,tacos,True,1640
A12QNNTNQOEQJG:31QTRG6Q2USZQU35DBL8AUPGQIZYPN,0,free,60,29,140850,Bear_1_6,Bear,categoryIgnore1D,tacos,tacos,True,901
A12QNNTNQOEQJG:31QTRG6Q2USZQU35DBL8AUPGQIZYPN,0,free,61,30,142511,Bear_5_5,Bear,categoryIgnore1D,grilled_cheese,grilled_cheese,True,1522
A12QNNTNQOEQJG:31QTRG6Q2USZQU35DBL8AUPGQIZYPN,0,free,62,31,144793,Bear_2_5,Bear,categoryIgnore1D,tacos,tacos,True,1120
A12QNNTNQOEQJG:31QTRG6Q2USZQU35DBL8AUPGQIZYPN,0,free,63,1,147455,Bunny_4_3,Bunny,category2D,bananas,bananas,True,1574
A12QNNTNQOEQJG:31QTRG6Q2USZQU35DBL8AUPGQIZYPN,0,free,64,2,149788,Bunny_1_3,Bunny,category2D,bananas,bananas,True,721
A12QNNTNQOEQJG:31QTRG6Q2USZQU35DBL8AUPGQIZYPN,0,free,65,3,151270,Bunny_3_4,Bunny,category2D,bananas,oranges,False,1994
A12QNNTNQOEQJG:31QTRG6Q2USZQU35DBL8AUPGQIZYPN,0,free,66,4,154525,Bunny_2_5,Bunny,category2D,oranges,bananas,False,821
A12QNNTNQOEQJG:31QTRG6Q2USZQU35DBL8AUPGQIZYPN,0,free,67,5,156632,Bunny_2_4,Bunny,category2D,bananas,bananas,True,1415
A12QNNTNQOEQJG:31QTRG6Q2USZQU35DBL8AUPGQIZYPN,0,free,68,6,158819,Bunny_5_6,Bunny,category2D,oranges,oranges,True,1948
A12QNNTNQOEQJG:31QTRG6Q2USZQU35DBL8AUPGQIZYPN,0,free,69,7,161529,Bunny_6_4,Bunny,category2D,oranges,bananas,False,985
A12QNNTNQOEQJG:31QTRG6Q2USZQU35DBL8AUPGQIZYPN,0,free,70,8,163799,Bunny_1_6,Bunny,category2D,oranges,bananas,False,494
A12QNNTNQOEQJG:31QTRG6Q2USZQU35DBL8AUPGQIZYPN,0,free,71,9,165551,Bunny_4_5,Bunny,category2D,oranges,bananas,False,1018
A12QNNTNQOEQJG:31QTRG6Q2USZQU35DBL8AUPGQIZYPN,0,free,72,10,167826,Bunny_4_2,Bunny,category2D,bananas,oranges,False,1022
A12QNNTNQOEQJG:31QTRG6Q2USZQU35DBL8AUPGQIZYPN,0,free,73,11,170106,Bunny_3_4,Bunny,category2D,bananas,oranges,False,512
A12QNNTNQOEQJG:31QTRG6Q2USZQU35DBL8AUPGQIZYPN,0,free,74,12,171877,Bunny_2_3,Bunny,category2D,bananas,bananas,True,784
A12QNNTNQOEQJG:31QTRG6Q2USZQU35DBL8AUPGQIZYPN,0,free,75,13,173420,Bunny_2_5,Bunny,category2D,oranges,bananas,False,436
A12QNNTNQOEQJG:31QTRG6Q2USZQU35DBL8AUPGQIZYPN,0,free,76,14,175117,Bunny_3_3,Bunny,category2D,bananas,oranges,False,799
A12QNNTNQOEQJG:31QTRG6Q2USZQU35DBL8AUPGQIZYPN,0,free,77,15,177177,Bunny_4_6,Bunny,category2D,oranges,oranges,True,476
A12QNNTNQOEQJG:31QTRG6Q2USZQU35DBL8AUPGQIZYPN,0,free,78,16,178412,Bunny_2_5,Bunny,category2D,oranges,oranges,True,1446
A12QNNTNQOEQJG:31QTRG6Q2USZQU35DBL8AUPGQIZYPN,0,free,79,17,180618,Bunny_2_5,Bunny,category2D,oranges,oranges,True,1035
A12QNNTNQOEQJG:31QTRG6Q2USZQU35DBL8AUPGQIZYPN,0,free,80,18,182413,Bunny_3_3,Bunny,category2D,bananas,bananas,True,968
A12QNNTNQOEQJG:31QTRG6Q2USZQU35DBL8AUPGQIZYPN,0,free,81,19,184142,Bunny_3_6,Bunny,category2D,oranges,oranges,True,1365
A12QNNTNQOEQJG:31QTRG6Q2USZQU35DBL8AUPGQIZYPN,0,free,82,20,186266,Bunny_5_2,Bunny,category2D,oranges,bananas,False,1506
A12QNNTNQOEQJG:31QTRG6Q2USZQU35DBL8AUPGQIZYPN,0,free,83,21,189030,Bunny_5_6,Bunny,category2D,oranges,bananas,False,349
A12QNNTNQOEQJG:31QTRG6Q2USZQU35DBL8AUPGQIZYPN,0,free,84,22,190667,Bunny_4_5,Bunny,category2D,oranges,oranges,True,363
A12QNNTNQOEQJG:31QTRG6Q2USZQU35DBL8AUPGQIZYPN,0,free,85,23,191789,Bunny_2_4,Bunny,category2D,bananas,oranges,False,1489
A12QNNTNQOEQJG:31QTRG6Q2USZQU35DBL8AUPGQIZYPN,0,free,86,24,194552,Bunny_3_3,Bunny,category2D,bananas,bananas,True,506
A12QNNTNQOEQJG:31QTRG6Q2USZQU35DBL8AUPGQIZYPN,0,free,87,25,195817,Bunny_5_3,Bunny,category2D,oranges,bananas,False,613
A12QNNTNQOEQJG:31QTRG6Q2USZQU35DBL8AUPGQIZYPN,0,free,88,26,197694,Bunny_5_3,Bunny,category2D,oranges,bananas,False,7292
A12QNNTNQOEQJG:31QTRG6Q2USZQU35DBL8AUPGQIZYPN,0,free,89,1,208312,Bear_4_2,Bear,categoryIgnore1D,grilled_cheese,tacos,False,480
A12QNNTNQOEQJG:31QTRG6Q2USZQU35DBL8AUPGQIZYPN,0,free,90,1,210373,GreenMonster_4_5,GreenMonster,categoryRandom,carrot,broccoli,False,340
A12QNNTNQOEQJG:31QTRG6Q2USZQU35DBL8AUPGQIZYPN,0,free,91,2,211974,GreenMonster_4_4,GreenMonster,categoryRandom,broccoli,carrot,False,146
A12QNNTNQOEQJG:31QTRG6Q2USZQU35DBL8AUPGQIZYPN,0,free,92,3,213385,GreenMonster_4_4,GreenMonster,categoryRandom,broccoli,broccoli,True,135
A12QNNTNQOEQJG:31QTRG6Q2USZQU35DBL8AUPGQIZYPN,0,free,93,4,214280,GreenMonster_6_4,GreenMonster,categoryRandom,broccoli,broccoli,True,99
A12QNNTNQOEQJG:31QTRG6Q2USZQU35DBL8AUPGQIZYPN,0,free,94,5,215142,GreenMonster_6_1,GreenMonster,categoryRandom,carrot,broccoli,False,88
A12QNNTNQOEQJG:31QTRG6Q2USZQU35DBL8AUPGQIZYPN,0,free,95,6,216488,GreenMonster_1_1,GreenMonster,categoryRandom,broccoli,carrot,False,30
A12QNNTNQOEQJG:31QTRG6Q2USZQU35DBL8AUPGQIZYPN,0,free,96,7,217776,GreenMonster_3_2,GreenMonster,categoryRandom,broccoli,broccoli,True,130
A12QNNTNQOEQJG:31QTRG6Q2USZQU35DBL8AUPGQIZYPN,0,free,97,8,218665,GreenMonster_4_2,GreenMonster,categoryRandom,broccoli,carrot,False,154
A12QNNTNQOEQJG:31QTRG6Q2USZQU35DBL8AUPGQIZYPN,0,free,98,9,220078,GreenMonster_1_5,GreenMonster,categoryRandom,broccoli,broccoli,True,107
A12QNNTNQOEQJG:31QTRG6Q2USZQU35DBL8AUPGQIZYPN,0,free,99,10,220952,GreenMonster_6_6,GreenMonster,categoryRandom,carrot,broccoli,False,34
A12QNNTNQOEQJG:31QTRG6Q2USZQU35DBL8AUPGQIZYPN,0,free,100,11,222248,GreenMonster_6_1,GreenMonster,categoryRandom,broccoli,carrot,False,171
A12QNNTNQOEQJG:31QTRG6Q2USZQU35DBL8AUPGQIZYPN,0,free,101,12,223677,GreenMonster_5_2,GreenMonster,categoryRandom,carrot,carrot,True,243
A12QNNTNQOEQJG:31QTRG6Q2USZQU35DBL8AUPGQIZYPN,0,free,102,13,224680,GreenMonster_3_3,GreenMonster,categoryRandom,carrot,broccoli,False,396
A12QNNTNQOEQJG:31QTRG6Q2USZQU35DBL8AUPGQIZYPN,0,free,103,14,226335,GreenMonster_5_4,GreenMonster,categoryRandom,carrot,carrot,True,176
A12QNNTNQOEQJG:31QTRG6Q2USZQU35DBL8AUPGQIZYPN,0,free,104,15,227271,GreenMonster_1_3,GreenMonster,categoryRandom,broccoli,carrot,False,313
A12QNNTNQOEQJG:31QTRG6Q2USZQU35DBL8AUPGQIZYPN,0,free,105,16,228843,GreenMonster_1_1,GreenMonster,categoryRandom,carrot,carrot,True,340
A12QNNTNQOEQJG:31QTRG6Q2USZQU35DBL8AUPGQIZYPN,0,free,106,17,229942,GreenMonster_5_6,GreenMonster,categoryRandom,carrot,broccoli,False,340
A12QNNTNQOEQJG:31QTRG6Q2USZQU35DBL8AUPGQIZYPN,0,free,107,18,231540,GreenMonster_6_2,GreenMonster,categoryRandom,broccoli,broccoli,True,14
A12QNNTNQOEQJG:31QTRG6Q2USZQU35DBL8AUPGQIZYPN,0,free,108,19,232320,GreenMonster_6_4,GreenMonster,categoryRandom,carrot,carrot,True,240
A12QNNTNQOEQJG:31QTRG6Q2USZQU35DBL8AUPGQIZYPN,0,free,109,20,233321,GreenMonster_1_1,GreenMonster,categoryRandom,broccoli,broccoli,True,116
A12QNNTNQOEQJG:31QTRG6Q2USZQU35DBL8AUPGQIZYPN,0,free,110,21,234198,GreenMonster_2_2,GreenMonster,categoryRandom,broccoli,carrot,False,65
A12QNNTNQOEQJG:31QTRG6Q2USZQU35DBL8AUPGQIZYPN,0,free,111,22,235527,GreenMonster_4_2,GreenMonster,categoryRandom,broccoli,broccoli,True,140
A12QNNTNQOEQJG:31QTRG6Q2USZQU35DBL8AUPGQIZYPN,0,free,112,23,236428,GreenMonster_4_6,GreenMonster,categoryRandom,broccoli,broccoli,True,111
A12QNNTNQOEQJG:31QTRG6Q2USZQU35DBL8AUPGQIZYPN,0,free,113,24,237344,GreenMonster_1_6,GreenMonster,categoryRandom,broccoli,carrot,False,175
A12QNNTNQOEQJG:31QTRG6Q2USZQU35DBL8AUPGQIZYPN,0,free,114,25,238783,GreenMonster_5_2,GreenMonster,categoryRandom,carrot,carrot,True,152
A12QNNTNQOEQJG:31QTRG6Q2USZQU35DBL8AUPGQIZYPN,0,free,115,26,239695,GreenMonster_5_1,GreenMonster,categoryRandom,carrot,broccoli,False,149
A12QNNTNQOEQJG:31QTRG6Q2USZQU35DBL8AUPGQIZYPN,0,free,116,27,241118,GreenMonster_4_3,GreenMonster,categoryRandom,carrot,broccoli,False,77
A12QNNTNQOEQJG:31QTRG6Q2USZQU35DBL8AUPGQIZYPN,0,free,117,28,242453,GreenMonster_6_1,GreenMonster,categoryRandom,carrot,carrot,True,82
A12QNNTNQOEQJG:31QTRG6Q2USZQU35DBL8AUPGQIZYPN,0,free,118,29,243293,GreenMonster_2_6,GreenMonster,categoryRandom,carrot,carrot,True,94
A12QNNTNQOEQJG:31QTRG6Q2USZQU35DBL8AUPGQIZYPN,0,free,119,30,244154,GreenMonster_3_4,GreenMonster,categoryRandom,broccoli,broccoli,True,67
A12QNNTNQOEQJG:31QTRG6Q2USZQU35DBL8AUPGQIZYPN,0,free,120,31,244994,GreenMonster_1_2,GreenMonster,categoryRandom,broccoli,broccoli,True,186
A12QNNTNQOEQJG:31QTRG6Q2USZQU35DBL8AUPGQIZYPN,0,free,121,32,245940,GreenMonster_3_2,GreenMonster,categoryRandom,carrot,carrot,True,106
A12QNNTNQOEQJG:31QTRG6Q2USZQU35DBL8AUPGQIZYPN,0,free,122,33,246808,GreenMonster_1_3,GreenMonster,categoryRandom,broccoli,carrot,False,616
A12QNNTNQOEQJG:31QTRG6Q2USZQU35DBL8AUPGQIZYPN,0,free,123,34,248685,GreenMonster_1_1,GreenMonster,categoryRandom,carrot,broccoli,False,156
A12QNNTNQOEQJG:31QTRG6Q2USZQU35DBL8AUPGQIZYPN,0,free,124,35,250102,GreenMonster_5_3,GreenMonster,categoryRandom,broccoli,carrot,False,160
A12QNNTNQOEQJG:31QTRG6Q2USZQU35DBL8AUPGQIZYPN,0,free,125,36,251526,GreenMonster_2_2,GreenMonster,categoryRandom,broccoli,carrot,False,50
A12QNNTNQOEQJG:31QTRG6Q2USZQU35DBL8AUPGQIZYPN,0,free,126,37,252842,GreenMonster_6_2,GreenMonster,categoryRandom,carrot,carrot,True,185
A12QNNTNQOEQJG:31QTRG6Q2USZQU35DBL8AUPGQIZYPN,0,free,127,38,253793,GreenMonster_6_5,GreenMonster,categoryRandom,carrot,carrot,True,297
A12QNNTNQOEQJG:31QTRG6Q2USZQU35DBL8AUPGQIZYPN,0,free,128,39,254860,GreenMonster_1_1,GreenMonster,categoryRandom,carrot,broccoli,False,154
A12QNNTNQOEQJG:31QTRG6Q2USZQU35DBL8AUPGQIZYPN,0,free,129,40,256274,GreenMonster_2_6,GreenMonster,categoryRandom,broccoli,broccoli,True,112
A12QNNTNQOEQJG:31QTRG6Q2USZQU35DBL8AUPGQIZYPN,0,free,130,41,257162,GreenMonster_4_4,GreenMonster,categoryRandom,carrot,broccoli,False,652
A12QNNTNQOEQJG:31QTRG6Q2USZQU35DBL8AUPGQIZYPN,0,free,131,42,259082,GreenMonster_5_5,GreenMonster,categoryRandom,broccoli,carrot,False,35
A12QNNTNQOEQJG:31QTRG6Q2USZQU35DBL8AUPGQIZYPN,0,free,132,43,260385,GreenMonster_6_6,GreenMonster,categoryRandom,broccoli,broccoli,True,543
A12QNNTNQOEQJG:31QTRG6Q2USZQU35DBL8AUPGQIZYPN,0,free,133,1,261952,Squid_6_1,Squid,category1D,waffles,waffles,True,498
A12QNNTNQOEQJG:31QTRG6Q2USZQU35DBL8AUPGQIZYPN,0,free,134,2,263214,Squid_3_1,Squid,category1D,waffles,waffles,True,863
A12QNNTNQOEQJG:31QTRG6Q2USZQU35DBL8AUPGQIZYPN,0,free,135,3,264841,Squid_3_1,Squid,category1D,waffles,pancakes,False,395
A12QNNTNQOEQJG:31QTRG6Q2USZQU35DBL8AUPGQIZYPN,0,free,136,4,266495,Squid_3_1,Squid,category1D,waffles,pancakes,False,115
A12QNNTNQOEQJG:31QTRG6Q2USZQU35DBL8AUPGQIZYPN,0,free,137,5,267869,Squid_6_1,Squid,category1D,waffles,waffles,True,1109
A12QNNTNQOEQJG:31QTRG6Q2USZQU35DBL8AUPGQIZYPN,0,free,138,6,269757,Squid_1_1,Squid,category1D,pancakes,waffles,False,804
A12QNNTNQOEQJG:31QTRG6Q2USZQU35DBL8AUPGQIZYPN,0,free,139,7,271823,Squid_1_1,Squid,category1D,pancakes,pancakes,True,36
A12QNNTNQOEQJG:31QTRG6Q2USZQU35DBL8AUPGQIZYPN,0,free,140,8,272619,Squid_2_1,Squid,category1D,pancakes,pancakes,True,135
A12QNNTNQOEQJG:31QTRG6Q2USZQU35DBL8AUPGQIZYPN,0,free,141,9,273523,Squid_4_1,Squid,category1D,waffles,pancakes,False,88
A12QNNTNQOEQJG:31QTRG6Q2USZQU35DBL8AUPGQIZYPN,0,free,142,10,274871,Squid_2_1,Squid,category1D,pancakes,pancakes,True,2196
A12QNNTNQOEQJG:31QTRG6Q2USZQU35DBL8AUPGQIZYPN,0,free,143,1,278078,Bear_2_4,Bear,categoryIgnore1D,tacos,tacos,True,781
A12QNNTNQOEQJG:31QTRG6Q2USZQU35DBL8AUPGQIZYPN,0,free,144,2,279618,Bear_1_3,Bear,categoryIgnore1D,tacos,grilled_cheese,False,108
A12QNNTNQOEQJG:31QTRG6Q2USZQU35DBL8AUPGQIZYPN,0,free,145,3,280988,Bear_6_4,Bear,categoryIgnore1D,grilled_cheese,tacos,False,143
A12QNNTNQOEQJG:31QTRG6Q2USZQU35DBL8AUPGQIZYPN,0,free,146,4,282390,Bear_2_3,Bear,categoryIgnore1D,tacos,tacos,True,720
A12QNNTNQOEQJG:31QTRG6Q2USZQU35DBL8AUPGQIZYPN,0,free,147,5,283870,Bear_3_4,Bear,categoryIgnore1D,tacos,tacos,True,842
A12QNNTNQOEQJG:31QTRG6Q2USZQU35DBL8AUPGQIZYPN,0,free,148,6,285473,Bear_4_6,Bear,categoryIgnore1D,grilled_cheese,tacos,False,936
A12QNNTNQOEQJG:31QTRG6Q2USZQU35DBL8AUPGQIZYPN,0,free,149,7,287681,Bear_6_4,Bear,categoryIgnore1D,grilled_cheese,grilled_cheese,True,324
A12QNNTNQOEQJG:31QTRG6Q2USZQU35DBL8AUPGQIZYPN,0,free,150,8,288765,Bear_6_6,Bear,categoryIgnore1D,grilled_cheese,grilled_cheese,True,522
A12QNNTNQOEQJG:31QTRG6Q2USZQU35DBL8AUPGQIZYPN,0,free,151,9,290091,Bear_5_2,Bear,categoryIgnore1D,grilled_cheese,grilled_cheese,True,191
A12QNNTNQOEQJG:31QTRG6Q2USZQU35DBL8AUPGQIZYPN,0,free,152,10,291045,Bear_4_1,Bear,categoryIgnore1D,grilled_cheese,grilled_cheese,True,81
A12QNNTNQOEQJG:31QTRG6Q2USZQU35DBL8AUPGQIZYPN,0,free,153,11,291886,Bear_1_1,Bear,categoryIgnore1D,tacos,grilled_cheese,False,138
A12QNNTNQOEQJG:31QTRG6Q2USZQU35DBL8AUPGQIZYPN,0,free,154,12,293301,Bear_1_3,Bear,categoryIgnore1D,tacos,tacos,True,97
A12QNNTNQOEQJG:31QTRG6Q2USZQU35DBL8AUPGQIZYPN,0,free,155,13,294159,Bear_3_6,Bear,categoryIgnore1D,tacos,tacos,True,213
A12QNNTNQOEQJG:31QTRG6Q2USZQU35DBL8AUPGQIZYPN,0,free,156,14,295131,Bear_2_4,Bear,categoryIgnore1D,tacos,tacos,True,114
A12QNNTNQOEQJG:31QTRG6Q2USZQU35DBL8AUPGQIZYPN,0,free,157,15,296005,Bear_4_2,Bear,categoryIgnore1D,grilled_cheese,tacos,False,119
A12QNNTNQOEQJG:31QTRG6Q2USZQU35DBL8AUPGQIZYPN,0,free,158,16,297386,Bear_3_6,Bear,categoryIgnore1D,tacos,grilled_cheese,False,134
A12QNNTNQOEQJG:31QTRG6Q2USZQU35DBL8AUPGQIZYPN,0,free,159,17,298779,Bear_1_4,Bear,categoryIgnore1D,tacos,tacos,True,219
A12QNNTNQOEQJG:31QTRG6Q2USZQU35DBL8AUPGQIZYPN,0,free,160,18,299761,Bear_4_4,Bear,categoryIgnore1D,grilled_cheese,tacos,False,49
A12QNNTNQOEQJG:31QTRG6Q2USZQU35DBL8AUPGQIZYPN,0,free,161,19,301071,Bear_6_2,Bear,categoryIgnore1D,grilled_cheese,grilled_cheese,True,200
A12QNNTNQOEQJG:31QTRG6Q2USZQU35DBL8AUPGQIZYPN,0,free,162,20,302032,Bear_1_5,Bear,categoryIgnore1D,tacos,grilled_cheese,False,202
A12QNNTNQOEQJG:31QTRG6Q2USZQU35DBL8AUPGQIZYPN,0,free,163,21,303503,Bear_3_4,Bear,categoryIgnore1D,tacos,tacos,True,400
A12QNNTNQOEQJG:31QTRG6Q2USZQU35DBL8AUPGQIZYPN,0,free,164,22,304681,Bear_1_1,Bear,categoryIgnore1D,tacos,tacos,True,232
A12QNNTNQOEQJG:31QTRG6Q2USZQU35DBL8AUPGQIZYPN,0,free,165,23,305673,Bear_6_2,Bear,categoryIgnore1D,grilled_cheese,tacos,False,224
A12QNNTNQOEQJG:31QTRG6Q2USZQU35DBL8AUPGQIZYPN,0,free,166,24,307158,Bear_2_5,Bear,categoryIgnore1D,tacos,grilled_cheese,False,102
A12QNNTNQOEQJG:31QTRG6Q2USZQU35DBL8AUPGQIZYPN,0,free,167,25,308519,Bear_4_6,Bear,categoryIgnore1D,grilled_cheese,tacos,False,123
A12QNNTNQOEQJG:31QTRG6Q2USZQU35DBL8AUPGQIZYPN,0,free,168,26,309910,Bear_5_4,Bear,categoryIgnore1D,grilled_cheese,grilled_cheese,True,246
A12QNNTNQOEQJG:31QTRG6Q2USZQU35DBL8AUPGQIZYPN,0,free,169,27,310922,Bear_3_2,Bear,categoryIgnore1D,tacos,grilled_cheese,False,150
A12QNNTNQOEQJG:31QTRG6Q2USZQU35DBL8AUPGQIZYPN,0,free,170,28,312331,Bear_1_6,Bear,categoryIgnore1D,tacos,tacos,True,93
A12QNNTNQOEQJG:31QTRG6Q2USZQU35DBL8AUPGQIZYPN,0,free,171,29,313188,Bear_5_4,Bear,categoryIgnore1D,grilled_cheese,tacos,False,612
A12QNNTNQOEQJG:31QTRG6Q2USZQU35DBL8AUPGQIZYPN,0,free,172,30,315088,Bear_5_3,Bear,categoryIgnore1D,grilled_cheese,grilled_cheese,True,393
A12QNNTNQOEQJG:31QTRG6Q2USZQU35DBL8AUPGQIZYPN,0,free,173,31,316242,Bear_5_2,Bear,categoryIgnore1D,grilled_cheese,grilled_cheese,True,178
A12QNNTNQOEQJG:31QTRG6Q2USZQU35DBL8AUPGQIZYPN,0,free,174,32,317218,Bear_5_5,Bear,categoryIgnore1D,grilled_cheese,grilled_cheese,True,114
A12QNNTNQOEQJG:31QTRG6Q2USZQU35DBL8AUPGQIZYPN,0,free,175,33,318101,Bear_1_1,Bear,categoryIgnore1D,tacos,grilled_cheese,False,121
A12QNNTNQOEQJG:31QTRG6Q2USZQU35DBL8AUPGQIZYPN,0,free,176,34,319487,Bear_6_6,Bear,categoryIgnore1D,grilled_cheese,tacos,False,145
A12QNNTNQOEQJG:31QTRG6Q2USZQU35DBL8AUPGQIZYPN,0,free,177,35,320895,Bear_4_5,Bear,categoryIgnore1D,grilled_cheese,tacos,False,107
A12QNNTNQOEQJG:31QTRG6Q2USZQU35DBL8AUPGQIZYPN,0,free,178,36,322264,Bear_6_2,Bear,categoryIgnore1D,grilled_cheese,tacos,False,50
A12QNNTNQOEQJG:31QTRG6Q2USZQU35DBL8AUPGQIZYPN,0,free,179,37,323621,Bear_1_4,Bear,categoryIgnore1D,tacos,grilled_cheese,False,175
A12QNNTNQOEQJG:31QTRG6Q2USZQU35DBL8AUPGQIZYPN,0,free,180,38,325058,Bear_6_5,Bear,categoryIgnore1D,grilled_cheese,tacos,False,156
A12QNNTNQOEQJG:31QTRG6Q2USZQU35DBL8AUPGQIZYPN,0,free,181,39,326477,Bear_3_6,Bear,categoryIgnore1D,tacos,grilled_cheese,False,66
A12QNNTNQOEQJG:31QTRG6Q2USZQU35DBL8AUPGQIZYPN,0,free,182,1,328106,Bunny_3_2,Bunny,category2D,bananas,bananas,True,263
A12QNNTNQOEQJG:31QTRG6Q2USZQU35DBL8AUPGQIZYPN,0,free,183,2,329134,Bunny_4_6,Bunny,category2D,oranges,oranges,True,1400
A12QNNTNQOEQJG:31QTRG6Q2USZQU35DBL8AUPGQIZYPN,0,free,184,3,331319,Bunny_1_4,Bunny,category2D,bananas,oranges,False,89
A12QNNTNQOEQJG:31QTRG6Q2USZQU35DBL8AUPGQIZYPN,0,free,185,4,332674,Bunny_6_2,Bunny,category2D,oranges,bananas,False,162
A12QNNTNQOEQJG:31QTRG6Q2USZQU35DBL8AUPGQIZYPN,0,free,186,5,334104,Bunny_1_1,Bunny,category2D,bananas,oranges,False,80
A12QNNTNQOEQJG:31QTRG6Q2USZQU35DBL8AUPGQIZYPN,0,free,187,6,335450,Bunny_6_4,Bunny,category2D,oranges,oranges,True,140
A12QNNTNQOEQJG:31QTRG6Q2USZQU35DBL8AUPGQIZYPN,0,free,188,7,336369,Bunny_1_3,Bunny,category2D,bananas,oranges,False,285
A12QNNTNQOEQJG:31QTRG6Q2USZQU35DBL8AUPGQIZYPN,0,free,189,8,337921,Bunny_1_2,Bunny,category2D,bananas,oranges,False,72
A12QNNTNQOEQJG:31QTRG6Q2USZQU35DBL8AUPGQIZYPN,0,free,190,9,339269,Bunny_3_2,Bunny,category2D,bananas,bananas,True,218
A12QNNTNQOEQJG:31QTRG6Q2USZQU35DBL8AUPGQIZYPN,0,free,191,10,340253,Bunny_4_1,Bunny,category2D,bananas,bananas,True,135
A12QNNTNQOEQJG:31QTRG6Q2USZQU35DBL8AUPGQIZYPN,0,free,192,11,341152,Bunny_4_3,Bunny,category2D,bananas,bananas,True,152
A12QNNTNQOEQJG:31QTRG6Q2USZQU35DBL8AUPGQIZYPN,0,free,193,12,342065,Bunny_4_6,Bunny,category2D,oranges,bananas,False,20
A12QNNTNQOEQJG:31QTRG6Q2USZQU35DBL8AUPGQIZYPN,0,free,194,13,343350,Bunny_1_4,Bunny,category2D,bananas,oranges,False,115
A12QNNTNQOEQJG:31QTRG6Q2USZQU35DBL8AUPGQIZYPN,0,free,195,14,344777,Bunny_2_3,Bunny,category2D,bananas,bananas,True,128
A12QNNTNQOEQJG:31QTRG6Q2USZQU35DBL8AUPGQIZYPN,0,free,196,15,345672,Bunny_3_4,Bunny,category2D,bananas,bananas,True,131
A12QNNTNQOEQJG:31QTRG6Q2USZQU35DBL8AUPGQIZYPN,0,free,197,16,346568,Bunny_5_6,Bunny,category2D,oranges,oranges,True,10
A12QNNTNQOEQJG:31QTRG6Q2USZQU35DBL8AUPGQIZYPN,0,free,198,17,347340,Bunny_6_4,Bunny,category2D,oranges,bananas,False,169
A12QNNTNQOEQJG:31QTRG6Q2USZQU35DBL8AUPGQIZYPN,0,free,199,18,348772,Bunny_5_3,Bunny,category2D,oranges,oranges,True,35
A12QNNTNQOEQJG:31QTRG6Q2USZQU35DBL8AUPGQIZYPN,0,free,200,19,349571,Bunny_3_2,Bunny,category2D,bananas,oranges,False,40
A12QNNTNQOEQJG:31QTRG6Q2USZQU35DBL8AUPGQIZYPN,0,free,201,20,350872,Bunny_4_4,Bunny,category2D,bananas,bananas,True,189
A12QNNTNQOEQJG:31QTRG6Q2USZQU35DBL8AUPGQIZYPN,0,free,202,21,351822,Bunny_4_4,Bunny,category2D,bananas,bananas,True,72
A12QNNTNQOEQJG:31QTRG6Q2USZQU35DBL8AUPGQIZYPN,0,free,203,22,352657,Bunny_1_3,Bunny,category2D,bananas,oranges,False,9
A12QNNTNQOEQJG:31QTRG6Q2USZQU35DBL8AUPGQIZYPN,0,free,204,23,353927,Bunny_6_4,Bunny,category2D,oranges,oranges,True,141
A12QNNTNQOEQJG:31QTRG6Q2USZQU35DBL8AUPGQIZYPN,0,free,205,24,354832,Bunny_4_1,Bunny,category2D,bananas,oranges,False,13
A12QNNTNQOEQJG:31QTRG6Q2USZQU35DBL8AUPGQIZYPN,0,free,206,25,356111,Bunny_5_6,Bunny,category2D,oranges,bananas,False,85
A12QNNTNQOEQJG:31QTRG6Q2USZQU35DBL8AUPGQIZYPN,0,free,207,26,357469,Bunny_4_1,Bunny,category2D,bananas,bananas,True,114
A12QNNTNQOEQJG:31QTRG6Q2USZQU35DBL8AUPGQIZYPN,0,free,208,27,358347,Bunny_3_1,Bunny,category2D,bananas,bananas,True,28
A12QNNTNQOEQJG:31QTRG6Q2USZQU35DBL8AUPGQIZYPN,0,free,209,28,359154,Bunny_2_4,Bunny,category2D,bananas,bananas,True,185
A12QNNTNQOEQJG:31QTRG6Q2USZQU35DBL8AUPGQIZYPN,0,free,210,29,360107,Bunny_6_2,Bunny,category2D,oranges,bananas,False,27
A12QNNTNQOEQJG:31QTRG6Q2USZQU35DBL8AUPGQIZYPN,0,free,211,30,361399,Bunny_6_1,Bunny,category2D,oranges,oranges,True,236
A12QNNTNQOEQJG:31QTRG6Q2USZQU35DBL8AUPGQIZYPN,0,free,212,31,362397,Bunny_4_5,Bunny,category2D,oranges,oranges,True,127
A12QNNTNQOEQJG:31QTRG6Q2USZQU35DBL8AUPGQIZYPN,0,free,213,32,363289,Bunny_6_1,Bunny,category2D,oranges,oranges,True,37
A12QNNTNQOEQJG:31QTRG6Q2USZQU35DBL8AUPGQIZYPN,0,free,214,33,364087,Bunny_4_5,Bunny,category2D,oranges,bananas,False,6
A12QNNTNQOEQJG:31QTRG6Q2USZQU35DBL8AUPGQIZYPN,0,free,215,34,365353,Bunny_6_6,Bunny,category2D,oranges,oranges,True,48
A12QNNTNQOEQJG:31QTRG6Q2USZQU35DBL8AUPGQIZYPN,0,free,216,1,366555,Squid_1_1,Squid,category1D,pancakes,pancakes,True,647
A12QNNTNQOEQJG:31QTRG6Q2USZQU35DBL8AUPGQIZYPN,0,free,217,2,367966,Squid_6_1,Squid,category1D,waffles,waffles,True,130
A12QNNTNQOEQJG:31QTRG6Q2USZQU35DBL8AUPGQIZYPN,0,free,218,3,368857,Squid_6_1,Squid,category1D,waffles,pancakes,False,152
A12QNNTNQOEQJG:31QTRG6Q2USZQU35DBL8AUPGQIZYPN,0,free,219,4,370269,Squid_4_1,Squid,category1D,waffles,pancakes,False,143
A12QNNTNQOEQJG:31QTRG6Q2USZQU35DBL8AUPGQIZYPN,0,free,220,5,371675,Squid_1_1,Squid,category1D,pancakes,waffles,False,59
A12QNNTNQOEQJG:31QTRG6Q2USZQU35DBL8AUPGQIZYPN,0,free,221,1,373294,GreenMonster_5_6,GreenMonster,categoryRandom,broccoli,carrot,False,286
A12QNNTNQOEQJG:31QTRG6Q2USZQU35DBL8AUPGQIZYPN,0,free,222,2,374845,GreenMonster_1_1,GreenMonster,categoryRandom,carrot,broccoli,False,148
A12QNNTNQOEQJG:31QTRG6Q2USZQU35DBL8AUPGQIZYPN,0,free,223,3,376264,GreenMonster_5_2,GreenMonster,categoryRandom,carrot,carrot,True,55
A12QNNTNQOEQJG:31QTRG6Q2USZQU35DBL8AUPGQIZYPN,0,free,224,4,377102,GreenMonster_2_5,GreenMonster,categoryRandom,carrot,carrot,True,204
A12QNNTNQOEQJG:31QTRG6Q2USZQU35DBL8AUPGQIZYPN,0,free,225,5,378073,GreenMonster_6_4,GreenMonster,categoryRandom,broccoli,carrot,False,26
A12QNNTNQOEQJG:31QTRG6Q2USZQU35DBL8AUPGQIZYPN,0,free,226,6,379359,GreenMonster_5_5,GreenMonster,categoryRandom,broccoli,broccoli,True,193
A12QNNTNQOEQJG:31QTRG6Q2USZQU35DBL8AUPGQIZYPN,0,free,227,7,380312,GreenMonster_1_6,GreenMonster,categoryRandom,carrot,broccoli,False,174
A12QNNTNQOEQJG:31QTRG6Q2USZQU35DBL8AUPGQIZYPN,0,free,228,8,381752,GreenMonster_3_5,GreenMonster,categoryRandom,broccoli,carrot,False,177
A12QNNTNQOEQJG:31QTRG6Q2USZQU35DBL8AUPGQIZYPN,0,free,229,9,383219,GreenMonster_5_4,GreenMonster,categoryRandom,carrot,carrot,True,19
A12QNNTNQOEQJG:31QTRG6Q2USZQU35DBL8AUPGQIZYPN,0,free,230,10,384000,GreenMonster_1_5,GreenMonster,categoryRandom,carrot,broccoli,False,95
A12QNNTNQOEQJG:31QTRG6Q2USZQU35DBL8AUPGQIZYPN,0,free,231,11,385365,GreenMonster_5_4,GreenMonster,categoryRandom,carrot,broccoli,False,79
A12QNNTNQOEQJG:31QTRG6Q2USZQU35DBL8AUPGQIZYPN,0,free,232,12,386705,GreenMonster_4_4,GreenMonster,categoryRandom,broccoli,broccoli,True,49
A12QNNTNQOEQJG:31QTRG6Q2USZQU35DBL8AUPGQIZYPN,0,free,233,13,387517,GreenMonster_6_4,GreenMonster,categoryRandom,carrot,carrot,True,129
A12QNNTNQOEQJG:31QTRG6Q2USZQU35DBL8AUPGQIZYPN,0,free,234,14,388410,GreenMonster_5_5,GreenMonster,categoryRandom,carrot,carrot,True,87
A12QNNTNQOEQJG:31QTRG6Q2USZQU35DBL8AUPGQIZYPN,0,free,235,15,389257,GreenMonster_5_3,GreenMonster,categoryRandom,carrot,broccoli,False,145
A12QNNTNQOEQJG:31QTRG6Q2USZQU35DBL8AUPGQIZYPN,0,free,236,16,390682,GreenMonster_6_1,GreenMonster,categoryRandom,carrot,carrot,True,209
A12QNNTNQOEQJG:31QTRG6Q2USZQU35DBL8AUPGQIZYPN,0,free,237,17,391682,GreenMonster_1_4,GreenMonster,categoryRandom,broccoli,broccoli,True,113
A12QNNTNQOEQJG:31QTRG6Q2USZQU35DBL8AUPGQIZYPN,0,free,238,18,392558,GreenMonster_6_6,GreenMonster,categoryRandom,carrot,carrot,True,113
A12QNNTNQOEQJG:31QTRG6Q2USZQU35DBL8AUPGQIZYPN,0,free,239,19,393438,GreenMonster_6_6,GreenMonster,categoryRandom,broccoli,carrot,False,52
A12QNNTNQOEQJG:31QTRG6Q2USZQU35DBL8AUPGQIZYPN,0,free,240,20,394751,GreenMonster_2_2,GreenMonster,categoryRandom,broccoli,broccoli,True,99
A12QNNTNQOEQJG:31QTRG6Q2USZQU35DBL8AUPGQIZYPN,0,free,241,21,395613,GreenMonster_5_4,GreenMonster,categoryRandom,broccoli,carrot,False,443
A12QNNTNQOEQJG:31QTRG6Q2USZQU35DBL8AUPGQIZYPN,0,free,242,22,397319,GreenMonster_3_6,GreenMonster,categoryRandom,carrot,broccoli,False,116
A12QNNTNQOEQJG:31QTRG6Q2USZQU35DBL8AUPGQIZYPN,0,free,243,23,398699,GreenMonster_4_2,GreenMonster,categoryRandom,broccoli,carrot,False,58
A12QNNTNQOEQJG:31QTRG6Q2USZQU35DBL8AUPGQIZYPN,0,free,244,1,400302,Squid_6_1,Squid,category1D,waffles,waffles,True,283
A12QNNTNQOEQJG:31QTRG6Q2USZQU35DBL8AUPGQIZYPN,0,free,245,2,401350,Squid_5_1,Squid,category1D,waffles,pancakes,False,142
A12QNNTNQOEQJG:31QTRG6Q2USZQU35DBL8AUPGQIZYPN,0,free,246,3,402757,Squid_3_1,Squid,category1D,waffles,waffles,True,110
A12QNNTNQOEQJG:31QTRG6Q2USZQU35DBL8AUPGQIZYPN,0,free,247,4,403648,Squid_3_1,Squid,category1D,waffles,pancakes,False,158
A12QNNTNQOEQJG:31QTRG6Q2USZQU35DBL8AUPGQIZYPN,0,free,248,5,405066,Squid_6_1,Squid,category1D,waffles,pancakes,False,61
A12QNNTNQOEQJG:31QTRG6Q2USZQU35DBL8AUPGQIZYPN,0,free,249,6,406386,Squid_2_1,Squid,category1D,pancakes,pancakes,True,27
A12QNNTNQOEQJG:31QTRG6Q2USZQU35DBL8AUPGQIZYPN,0,free,250,7,407197,Squid_6_1,Squid,category1D,waffles,pancakes,False,122
A13I8ASC3JQ04P:3137ONMDKHKV7CTFARJR9IJ87EREG2,0,free,1,1,2469,Squid_2_2,Squid,categoryIgnore1D,bananas,oranges,False,6043
A13I8ASC3JQ04P:3137ONMDKHKV7CTFARJR9IJ87EREG2,0,free,2,2,9772,Squid_5_1,Squid,categoryIgnore1D,oranges,oranges,True,2829
A13I8ASC3JQ04P:3137ONMDKHKV7CTFARJR9IJ87EREG2,0,free,3,3,13360,Squid_4_4,Squid,categoryIgnore1D,oranges,oranges,True,1465
A13I8ASC3JQ04P:3137ONMDKHKV7CTFARJR9IJ87EREG2,0,free,4,4,15579,Squid_4_5,Squid,categoryIgnore1D,oranges,oranges,True,814
A13I8ASC3JQ04P:3137ONMDKHKV7CTFARJR9IJ87EREG2,0,free,5,5,17146,Squid_3_6,Squid,categoryIgnore1D,bananas,oranges,False,1035
A13I8ASC3JQ04P:3137ONMDKHKV7CTFARJR9IJ87EREG2,0,free,6,6,19436,Squid_1_3,Squid,categoryIgnore1D,bananas,bananas,True,1588
A13I8ASC3JQ04P:3137ONMDKHKV7CTFARJR9IJ87EREG2,0,free,7,7,21777,Squid_2_4,Squid,categoryIgnore1D,bananas,bananas,True,1579
A13I8ASC3JQ04P:3137ONMDKHKV7CTFARJR9IJ87EREG2,0,free,8,8,24110,Squid_5_4,Squid,categoryIgnore1D,oranges,oranges,True,1139
A13I8ASC3JQ04P:3137ONMDKHKV7CTFARJR9IJ87EREG2,0,free,9,9,26003,Squid_2_3,Squid,categoryIgnore1D,bananas,bananas,True,1164
A13I8ASC3JQ04P:3137ONMDKHKV7CTFARJR9IJ87EREG2,0,free,10,10,27920,Squid_2_3,Squid,categoryIgnore1D,bananas,bananas,True,1005
A13I8ASC3JQ04P:3137ONMDKHKV7CTFARJR9IJ87EREG2,0,free,11,11,29679,Squid_2_1,Squid,categoryIgnore1D,bananas,bananas,True,4906
A13I8ASC3JQ04P:3137ONMDKHKV7CTFARJR9IJ87EREG2,0,free,12,12,35340,Squid_2_4,Squid,categoryIgnore1D,bananas,bananas,True,1212
A13I8ASC3JQ04P:3137ONMDKHKV7CTFARJR9IJ87EREG2,0,free,13,13,37308,Squid_3_3,Squid,categoryIgnore1D,bananas,oranges,False,1720
A13I8ASC3JQ04P:3137ONMDKHKV7CTFARJR9IJ87EREG2,0,free,14,14,40287,Squid_6_3,Squid,categoryIgnore1D,oranges,oranges,True,1674
A13I8ASC3JQ04P:3137ONMDKHKV7CTFARJR9IJ87EREG2,0,free,15,15,42714,Squid_1_6,Squid,categoryIgnore1D,bananas,bananas,True,1370
A13I8ASC3JQ04P:3137ONMDKHKV7CTFARJR9IJ87EREG2,0,free,16,16,44840,Squid_5_1,Squid,categoryIgnore1D,oranges,oranges,True,996
A13I8ASC3JQ04P:3137ONMDKHKV7CTFARJR9IJ87EREG2,0,free,17,17,46591,Squid_1_5,Squid,categoryIgnore1D,bananas,bananas,True,1905
A13I8ASC3JQ04P:3137ONMDKHKV7CTFARJR9IJ87EREG2,0,free,18,18,49252,Squid_4_2,Squid,categoryIgnore1D,oranges,oranges,True,1264
A13I8ASC3JQ04P:3137ONMDKHKV7CTFARJR9IJ87EREG2,0,free,19,19,51270,Squid_5_3,Squid,categoryIgnore1D,oranges,oranges,True,1106
A13I8ASC3JQ04P:3137ONMDKHKV7CTFARJR9IJ87EREG2,0,free,20,20,53133,Squid_2_1,Squid,categoryIgnore1D,bananas,bananas,True,1243
A13I8ASC3JQ04P:3137ONMDKHKV7CTFARJR9IJ87EREG2,0,free,21,21,55133,Squid_6_2,Squid,categoryIgnore1D,oranges,oranges,True,984
A13I8ASC3JQ04P:3137ONMDKHKV7CTFARJR9IJ87EREG2,0,free,22,22,56871,Squid_1_3,Squid,categoryIgnore1D,bananas,bananas,True,911
A13I8ASC3JQ04P:3137ONMDKHKV7CTFARJR9IJ87EREG2,0,free,23,23,58536,Squid_5_5,Squid,categoryIgnore1D,oranges,oranges,True,1184
A13I8ASC3JQ04P:3137ONMDKHKV7CTFARJR9IJ87EREG2,0,free,24,24,60475,Squid_4_5,Squid,categoryIgnore1D,oranges,bananas,False,2210
A13I8ASC3JQ04P:3137ONMDKHKV7CTFARJR9IJ87EREG2,0,free,25,1,64982,Bear_5_2,Bear,category2D,waffles,waffles,True,1246
A13I8ASC3JQ04P:3137ONMDKHKV7CTFARJR9IJ87EREG2,0,free,26,2,66983,Bear_6_6,Bear,category2D,waffles,waffles,True,1197
A13I8ASC3JQ04P:3137ONMDKHKV7CTFARJR9IJ87EREG2,0,free,27,3,68936,Bear_4_1,Bear,category2D,pancakes,waffles,False,824
A13I8ASC3JQ04P:3137ONMDKHKV7CTFARJR9IJ87EREG2,0,free,28,4,71018,Bear_1_4,Bear,category2D,pancakes,waffles,False,958
A13I8ASC3JQ04P:3137ONMDKHKV7CTFARJR9IJ87EREG2,0,free,29,5,73232,Bear_4_2,Bear,category2D,pancakes,pancakes,True,1236
A13I8ASC3JQ04P:3137ONMDKHKV7CTFARJR9IJ87EREG2,0,free,30,6,75224,Bear_6_1,Bear,category2D,waffles,pancakes,False,912
A13I8ASC3JQ04P:3137ONMDKHKV7CTFARJR9IJ87EREG2,0,free,31,7,77389,Bear_1_6,Bear,category2D,waffles,waffles,True,1040
A13I8ASC3JQ04P:3137ONMDKHKV7CTFARJR9IJ87EREG2,0,free,32,8,79184,Bear_5_3,Bear,category2D,waffles,pancakes,False,960
A13I8ASC3JQ04P:3137ONMDKHKV7CTFARJR9IJ87EREG2,0,free,33,1,82197,Bunny_6_3,Bunny,categoryRandom,broccoli,carrot,False,1263
A13I8ASC3JQ04P:3137ONMDKHKV7CTFARJR9IJ87EREG2,0,free,34,2,84716,Bunny_4_2,Bunny,categoryRandom,carrot,broccoli,False,2149
A13I8ASC3JQ04P:3137ONMDKHKV7CTFARJR9IJ87EREG2,0,free,35,3,88121,Bunny_4_1,Bunny,categoryRandom,broccoli,broccoli,True,1903
A13I8ASC3JQ04P:3137ONMDKHKV7CTFARJR9IJ87EREG2,0,free,36,4,90783,Bunny_5_5,Bunny,categoryRandom,broccoli,broccoli,True,1525
A13I8ASC3JQ04P:3137ONMDKHKV7CTFARJR9IJ87EREG2,0,free,37,5,93068,Bunny_1_1,Bunny,categoryRandom,broccoli,broccoli,True,780
A13I8ASC3JQ04P:3137ONMDKHKV7CTFARJR9IJ87EREG2,0,free,38,6,94608,Bunny_2_5,Bunny,categoryRandom,broccoli,broccoli,True,777
A13I8ASC3JQ04P:3137ONMDKHKV7CTFARJR9IJ87EREG2,0,free,39,7,96141,Bunny_3_1,Bunny,categoryRandom,broccoli,broccoli,True,647
A13I8ASC3JQ04P:3137ONMDKHKV7CTFARJR9IJ87EREG2,0,free,40,8,97544,Bunny_5_6,Bunny,categoryRandom,broccoli,broccoli,True,784
A13I8ASC3JQ04P:3137ONMDKHKV7CTFARJR9IJ87EREG2,0,free,41,9,99083,Bunny_1_4,Bunny,categoryRandom,carrot,broccoli,False,721
A13I8ASC3JQ04P:3137ONMDKHKV7CTFARJR9IJ87EREG2,0,free,42,10,101059,Bunny_6_1,Bunny,categoryRandom,broccoli,carrot,False,417
A13I8ASC3JQ04P:3137ONMDKHKV7CTFARJR9IJ87EREG2,0,free,43,11,102732,Bunny_3_5,Bunny,categoryRandom,carrot,broccoli,False,620
A13I8ASC3JQ04P:3137ONMDKHKV7CTFARJR9IJ87EREG2,0,free,44,12,104605,Bunny_4_6,Bunny,categoryRandom,broccoli,broccoli,True,1832
A13I8ASC3JQ04P:3137ONMDKHKV7CTFARJR9IJ87EREG2,0,free,45,1,108472,GreenMonster_2_1,GreenMonster,category1D,tacos,grilled_cheese,False,904
A13I8ASC3JQ04P:3137ONMDKHKV7CTFARJR9IJ87EREG2,0,free,46,2,110632,GreenMonster_4_1,GreenMonster,category1D,grilled_cheese,grilled_cheese,True,1381
A13I8ASC3JQ04P:3137ONMDKHKV7CTFARJR9IJ87EREG2,0,free,47,3,112769,GreenMonster_4_1,GreenMonster,category1D,grilled_cheese,grilled_cheese,True,596
A13I8ASC3JQ04P:3137ONMDKHKV7CTFARJR9IJ87EREG2,0,free,48,4,114121,GreenMonster_3_1,GreenMonster,category1D,grilled_cheese,grilled_cheese,True,1311
A13I8ASC3JQ04P:3137ONMDKHKV7CTFARJR9IJ87EREG2,0,free,49,5,116185,GreenMonster_2_1,GreenMonster,category1D,tacos,grilled_cheese,False,716
A13I8ASC3JQ04P:3137ONMDKHKV7CTFARJR9IJ87EREG2,0,free,50,6,118156,GreenMonster_1_1,GreenMonster,category1D,tacos,tacos,True,1908
A13I8ASC3JQ04P:3137ONMDKHKV7CTFARJR9IJ87EREG2,0,free,51,7,120819,GreenMonster_6_1,GreenMonster,category1D,grilled_cheese,grilled_cheese,True,1265
A13I8ASC3JQ04P:3137ONMDKHKV7CTFARJR9IJ87EREG2,0,free,52,8,122838,GreenMonster_6_1,GreenMonster,category1D,grilled_cheese,grilled_cheese,True,690
A13I8ASC3JQ04P:3137ONMDKHKV7CTFARJR9IJ87EREG2,0,free,53,9,124288,GreenMonster_3_1,GreenMonster,category1D,grilled_cheese,grilled_cheese,True,1276
A13I8ASC3JQ04P:3137ONMDKHKV7CTFARJR9IJ87EREG2,0,free,54,10,126322,GreenMonster_3_1,GreenMonster,category1D,grilled_cheese,grilled_cheese,True,746
A13I8ASC3JQ04P:3137ONMDKHKV7CTFARJR9IJ87EREG2,0,free,55,11,127823,GreenMonster_3_1,GreenMonster,category1D,grilled_cheese,grilled_cheese,True,650
A13I8ASC3JQ04P:3137ONMDKHKV7CTFARJR9IJ87EREG2,0,free,56,12,129228,GreenMonster_4_1,GreenMonster,category1D,grilled_cheese,grilled_cheese,True,1192
A13I8ASC3JQ04P:3137ONMDKHKV7CTFARJR9IJ87EREG2,0,free,57,13,131176,GreenMonster_1_1,GreenMonster,category1D,tacos,tacos,True,1264
A13I8ASC3JQ04P:3137ONMDKHKV7CTFARJR9IJ87EREG2,0,free,58,14,133195,GreenMonster_5_1,GreenMonster,category1D,grilled_cheese,grilled_cheese,True,1145
A13I8ASC3JQ04P:3137ONMDKHKV7CTFARJR9IJ87EREG2,0,free,59,15,135101,GreenMonster_6_1,GreenMonster,category1D,grilled_cheese,grilled_cheese,True,679
A13I8ASC3JQ04P:3137ONMDKHKV7CTFARJR9IJ87EREG2,0,free,60,16,136541,GreenMonster_4_1,GreenMonster,category1D,grilled_cheese,grilled_cheese,True,851
A13I8ASC3JQ04P:3137ONMDKHKV7CTFARJR9IJ87EREG2,0,free,61,17,138148,GreenMonster_1_1,GreenMonster,category1D,tacos,tacos,True,1529
A13I8ASC3JQ04P:3137ONMDKHKV7CTFARJR9IJ87EREG2,0,free,62,18,140432,GreenMonster_2_1,GreenMonster,category1D,tacos,tacos,True,632
A13I8ASC3JQ04P:3137ONMDKHKV7CTFARJR9IJ87EREG2,0,free,63,19,141819,GreenMonster_6_1,GreenMonster,category1D,grilled_cheese,grilled_cheese,True,1062
A13I8ASC3JQ04P:3137ONMDKHKV7CTFARJR9IJ87EREG2,0,free,64,20,143636,GreenMonster_3_1,GreenMonster,category1D,grilled_cheese,grilled_cheese,True,720
A13I8ASC3JQ04P:3137ONMDKHKV7CTFARJR9IJ87EREG2,0,free,65,21,145112,GreenMonster_3_1,GreenMonster,category1D,grilled_cheese,grilled_cheese,True,649
A13I8ASC3JQ04P:3137ONMDKHKV7CTFARJR9IJ87EREG2,0,free,66,22,146515,GreenMonster_4_1,GreenMonster,category1D,grilled_cheese,grilled_cheese,True,565
A13I8ASC3JQ04P:3137ONMDKHKV7CTFARJR9IJ87EREG2,0,free,67,23,147835,GreenMonster_4_1,GreenMonster,category1D,grilled_cheese,grilled_cheese,True,601
A13I8ASC3JQ04P:3137ONMDKHKV7CTFARJR9IJ87EREG2,0,free,68,24,149191,GreenMonster_2_1,GreenMonster,category1D,tacos,tacos,True,1529
A13I8ASC3JQ04P:3137ONMDKHKV7CTFARJR9IJ87EREG2,0,free,69,25,151476,GreenMonster_1_1,GreenMonster,category1D,tacos,tacos,True,1200
A13I8ASC3JQ04P:3137ONMDKHKV7CTFARJR9IJ87EREG2,0,free,70,26,153433,GreenMonster_1_1,GreenMonster,category1D,tacos,tacos,True,595
A13I8ASC3JQ04P:3137ONMDKHKV7CTFARJR9IJ87EREG2,0,free,71,27,154784,GreenMonster_5_1,GreenMonster,category1D,grilled_cheese,grilled_cheese,True,1025
A13I8ASC3JQ04P:3137ONMDKHKV7CTFARJR9IJ87EREG2,0,free,72,28,156563,GreenMonster_4_1,GreenMonster,category1D,grilled_cheese,grilled_cheese,True,1099
A13I8ASC3JQ04P:3137ONMDKHKV7CTFARJR9IJ87EREG2,0,free,73,29,158415,GreenMonster_5_1,GreenMonster,category1D,grilled_cheese,grilled_cheese,True,2422
A13I8ASC3JQ04P:3137ONMDKHKV7CTFARJR9IJ87EREG2,0,free,74,30,161591,GreenMonster_1_1,GreenMonster,category1D,tacos,tacos,True,2154
A13I8ASC3JQ04P:3137ONMDKHKV7CTFARJR9IJ87EREG2,0,free,75,31,164500,GreenMonster_5_1,GreenMonster,category1D,grilled_cheese,grilled_cheese,True,912
A13I8ASC3JQ04P:3137ONMDKHKV7CTFARJR9IJ87EREG2,0,free,76,32,166166,GreenMonster_3_1,GreenMonster,category1D,grilled_cheese,grilled_cheese,True,1631
A13I8ASC3JQ04P:3137ONMDKHKV7CTFARJR9IJ87EREG2,0,free,77,33,168552,GreenMonster_6_1,GreenMonster,category1D,grilled_cheese,grilled_cheese,True,784
A13I8ASC3JQ04P:3137ONMDKHKV7CTFARJR9IJ87EREG2,0,free,78,34,170095,GreenMonster_5_1,GreenMonster,category1D,grilled_cheese,grilled_cheese,True,685
A13I8ASC3JQ04P:3137ONMDKHKV7CTFARJR9IJ87EREG2,0,free,79,35,171535,GreenMonster_2_1,GreenMonster,category1D,tacos,grilled_cheese,False,2113
A13I8ASC3JQ04P:3137ONMDKHKV7CTFARJR9IJ87EREG2,0,free,80,36,174904,GreenMonster_5_1,GreenMonster,category1D,grilled_cheese,grilled_cheese,True,620
A13I8ASC3JQ04P:3137ONMDKHKV7CTFARJR9IJ87EREG2,0,free,81,37,176285,GreenMonster_2_1,GreenMonster,category1D,tacos,tacos,True,1364
A13I8ASC3JQ04P:3137ONMDKHKV7CTFARJR9IJ87EREG2,0,free,82,38,178404,GreenMonster_5_1,GreenMonster,category1D,grilled_cheese,grilled_cheese,True,598
A13I8ASC3JQ04P:3137ONMDKHKV7CTFARJR9IJ87EREG2,0,free,83,39,179755,GreenMonster_3_1,GreenMonster,category1D,grilled_cheese,grilled_cheese,True,1289
A13I8ASC3JQ04P:3137ONMDKHKV7CTFARJR9IJ87EREG2,0,free,84,40,181799,GreenMonster_3_1,GreenMonster,category1D,grilled_cheese,grilled_cheese,True,717
A13I8ASC3JQ04P:3137ONMDKHKV7CTFARJR9IJ87EREG2,0,free,85,41,183272,GreenMonster_6_1,GreenMonster,category1D,grilled_cheese,grilled_cheese,True,896
A13I8ASC3JQ04P:3137ONMDKHKV7CTFARJR9IJ87EREG2,0,free,86,42,184927,GreenMonster_5_1,GreenMonster,category1D,grilled_cheese,grilled_cheese,True,669
A13I8ASC3JQ04P:3137ONMDKHKV7CTFARJR9IJ87EREG2,0,free,87,43,186353,GreenMonster_1_1,GreenMonster,category1D,tacos,tacos,True,1124
A13I8ASC3JQ04P:3137ONMDKHKV7CTFARJR9IJ87EREG2,0,free,88,44,188233,GreenMonster_5_1,GreenMonster,category1D,grilled_cheese,grilled_cheese,True,639
A13I8ASC3JQ04P:3137ONMDKHKV7CTFARJR9IJ87EREG2,0,free,89,45,189631,GreenMonster_2_1,GreenMonster,category1D,tacos,tacos,True,1685
A13I8ASC3JQ04P:3137ONMDKHKV7CTFARJR9IJ87EREG2,0,free,90,46,192073,GreenMonster_1_1,GreenMonster,category1D,tacos,tacos,True,940
A13I8ASC3JQ04P:3137ONMDKHKV7CTFARJR9IJ87EREG2,0,free,91,47,193768,GreenMonster_4_1,GreenMonster,category1D,grilled_cheese,grilled_cheese,True,944
A13I8ASC3JQ04P:3137ONMDKHKV7CTFARJR9IJ87EREG2,0,free,92,48,195467,GreenMonster_4_1,GreenMonster,category1D,grilled_cheese,grilled_cheese,True,825
A13I8ASC3JQ04P:3137ONMDKHKV7CTFARJR9IJ87EREG2,0,free,93,49,197050,GreenMonster_6_1,GreenMonster,category1D,grilled_cheese,grilled_cheese,True,862
A13I8ASC3JQ04P:3137ONMDKHKV7CTFARJR9IJ87EREG2,0,free,94,50,198669,GreenMonster_3_1,GreenMonster,category1D,grilled_cheese,grilled_cheese,True,723
A13I8ASC3JQ04P:3137ONMDKHKV7CTFARJR9IJ87EREG2,0,free,95,51,200149,GreenMonster_3_1,GreenMonster,category1D,grilled_cheese,grilled_cheese,True,2028
A13I8ASC3JQ04P:3137ONMDKHKV7CTFARJR9IJ87EREG2,0,free,96,52,202934,GreenMonster_6_1,GreenMonster,category1D,grilled_cheese,grilled_cheese,True,1007
A13I8ASC3JQ04P:3137ONMDKHKV7CTFARJR9IJ87EREG2,0,free,97,53,204697,GreenMonster_1_1,GreenMonster,category1D,tacos,tacos,True,979
A13I8ASC3JQ04P:3137ONMDKHKV7CTFARJR9IJ87EREG2,0,free,98,54,206432,GreenMonster_2_1,GreenMonster,category1D,tacos,tacos,True,1488
A13I8ASC3JQ04P:3137ONMDKHKV7CTFARJR9IJ87EREG2,0,free,99,55,208676,GreenMonster_5_1,GreenMonster,category1D,grilled_cheese,grilled_cheese,True,880
A13I8ASC3JQ04P:3137ONMDKHKV7CTFARJR9IJ87EREG2,0,free,100,56,210314,GreenMonster_3_1,GreenMonster,category1D,grilled_cheese,grilled_cheese,True,626
A13I8ASC3JQ04P:3137ONMDKHKV7CTFARJR9IJ87EREG2,0,free,101,57,211699,GreenMonster_1_1,GreenMonster,category1D,tacos,tacos,True,933
A13I8ASC3JQ04P:3137ONMDKHKV7CTFARJR9IJ87EREG2,0,free,102,58,213387,GreenMonster_3_1,GreenMonster,category1D,grilled_cheese,grilled_cheese,True,889
A13I8ASC3JQ04P:3137ONMDKHKV7CTFARJR9IJ87EREG2,0,free,103,59,215032,GreenMonster_4_1,GreenMonster,category1D,grilled_cheese,grilled_cheese,True,492
A13I8ASC3JQ04P:3137ONMDKHKV7CTFARJR9IJ87EREG2,0,free,104,60,216284,GreenMonster_6_1,GreenMonster,category1D,grilled_cheese,grilled_cheese,True,564
A13I8ASC3JQ04P:3137ONMDKHKV7CTFARJR9IJ87EREG2,0,free,105,61,217604,GreenMonster_4_1,GreenMonster,category1D,grilled_cheese,grilled_cheese,True,589
A13I8ASC3JQ04P:3137ONMDKHKV7CTFARJR9IJ87EREG2,0,free,106,62,218948,GreenMonster_2_1,GreenMonster,category1D,tacos,tacos,True,1497
A13I8ASC3JQ04P:3137ONMDKHKV7CTFARJR9IJ87EREG2,0,free,107,63,221199,GreenMonster_5_1,GreenMonster,category1D,grilled_cheese,grilled_cheese,True,569
A13I8ASC3JQ04P:3137ONMDKHKV7CTFARJR9IJ87EREG2,0,free,108,64,222526,GreenMonster_4_1,GreenMonster,category1D,grilled_cheese,grilled_cheese,True,586
A13I8ASC3JQ04P:3137ONMDKHKV7CTFARJR9IJ87EREG2,0,free,109,65,223865,GreenMonster_2_1,GreenMonster,category1D,tacos,tacos,True,2196
A13I8ASC3JQ04P:3137ONMDKHKV7CTFARJR9IJ87EREG2,0,free,110,66,226815,GreenMonster_3_1,GreenMonster,category1D,grilled_cheese,grilled_cheese,True,482
A13I8ASC3JQ04P:3137ONMDKHKV7CTFARJR9IJ87EREG2,0,free,111,67,228053,GreenMonster_4_1,GreenMonster,category1D,grilled_cheese,grilled_cheese,True,707
A13I8ASC3JQ04P:3137ONMDKHKV7CTFARJR9IJ87EREG2,0,free,112,68,229515,GreenMonster_5_1,GreenMonster,category1D,grilled_cheese,grilled_cheese,True,577
A13I8ASC3JQ04P:3137ONMDKHKV7CTFARJR9IJ87EREG2,0,free,113,69,230846,GreenMonster_6_1,GreenMonster,category1D,grilled_cheese,grilled_cheese,True,564
A13I8ASC3JQ04P:3137ONMDKHKV7CTFARJR9IJ87EREG2,0,free,114,70,232165,GreenMonster_1_1,GreenMonster,category1D,tacos,tacos,True,987
A13I8ASC3JQ04P:3137ONMDKHKV7CTFARJR9IJ87EREG2,0,free,115,71,233908,GreenMonster_5_1,GreenMonster,category1D,grilled_cheese,grilled_cheese,True,849
A13I8ASC3JQ04P:3137ONMDKHKV7CTFARJR9IJ87EREG2,0,free,116,72,235512,GreenMonster_6_1,GreenMonster,category1D,grilled_cheese,grilled_cheese,True,600
A13I8ASC3JQ04P:3137ONMDKHKV7CTFARJR9IJ87EREG2,0,free,117,73,236866,GreenMonster_5_1,GreenMonster,category1D,grilled_cheese,grilled_cheese,True,510
A13I8ASC3JQ04P:3137ONMDKHKV7CTFARJR9IJ87EREG2,0,free,118,74,238154,GreenMonster_2_1,GreenMonster,category1D,tacos,tacos,True,4282
A13I8ASC3JQ04P:3137ONMDKHKV7CTFARJR9IJ87EREG2,0,free,119,75,243194,GreenMonster_4_1,GreenMonster,category1D,grilled_cheese,grilled_cheese,True,626
A13I8ASC3JQ04P:3137ONMDKHKV7CTFARJR9IJ87EREG2,0,free,120,76,244576,GreenMonster_3_1,GreenMonster,category1D,grilled_cheese,grilled_cheese,True,624
A13I8ASC3JQ04P:3137ONMDKHKV7CTFARJR9IJ87EREG2,0,free,121,77,245965,GreenMonster_4_1,GreenMonster,category1D,grilled_cheese,grilled_cheese,True,572
A13I8ASC3JQ04P:3137ONMDKHKV7CTFARJR9IJ87EREG2,0,free,122,78,247292,GreenMonster_5_1,GreenMonster,category1D,grilled_cheese,grilled_cheese,True,576
A13I8ASC3JQ04P:3137ONMDKHKV7CTFARJR9IJ87EREG2,0,free,123,79,248627,GreenMonster_5_1,GreenMonster,category1D,grilled_cheese,grilled_cheese,True,513
A13I8ASC3JQ04P:3137ONMDKHKV7CTFARJR9IJ87EREG2,0,free,124,80,249902,GreenMonster_4_1,GreenMonster,category1D,grilled_cheese,grilled_cheese,True,562
A13I8ASC3JQ04P:3137ONMDKHKV7CTFARJR9IJ87EREG2,0,free,125,81,251222,GreenMonster_4_1,GreenMonster,category1D,grilled_cheese,grilled_cheese,True,577
A13I8ASC3JQ04P:3137ONMDKHKV7CTFARJR9IJ87EREG2,0,free,126,82,252557,GreenMonster_3_1,GreenMonster,category1D,grilled_cheese,grilled_cheese,True,728
A13I8ASC3JQ04P:3137ONMDKHKV7CTFARJR9IJ87EREG2,0,free,127,83,254045,GreenMonster_4_1,GreenMonster,category1D,grilled_cheese,grilled_cheese,True,637
A13I8ASC3JQ04P:3137ONMDKHKV7CTFARJR9IJ87EREG2,0,free,128,84,255439,GreenMonster_1_1,GreenMonster,category1D,tacos,tacos,True,1247
A13I8ASC3JQ04P:3137ONMDKHKV7CTFARJR9IJ87EREG2,0,free,129,85,257444,GreenMonster_6_1,GreenMonster,category1D,grilled_cheese,grilled_cheese,True,954
A13I8ASC3JQ04P:3137ONMDKHKV7CTFARJR9IJ87EREG2,0,free,130,86,259154,GreenMonster_3_1,GreenMonster,category1D,grilled_cheese,grilled_cheese,True,759
A13I8ASC3JQ04P:3137ONMDKHKV7CTFARJR9IJ87EREG2,0,free,131,87,260674,GreenMonster_3_1,GreenMonster,category1D,grilled_cheese,grilled_cheese,True,643
A13I8ASC3JQ04P:3137ONMDKHKV7CTFARJR9IJ87EREG2,0,free,132,88,262075,GreenMonster_2_1,GreenMonster,category1D,tacos,tacos,True,1106
A13I8ASC3JQ04P:3137ONMDKHKV7CTFARJR9IJ87EREG2,0,free,133,89,263942,GreenMonster_1_1,GreenMonster,category1D,tacos,grilled_cheese,False,451
A13I8ASC3JQ04P:3137ONMDKHKV7CTFARJR9IJ87EREG2,0,free,134,90,265652,GreenMonster_5_1,GreenMonster,category1D,grilled_cheese,grilled_cheese,True,1897
A13I8ASC3JQ04P:3137ONMDKHKV7CTFARJR9IJ87EREG2,0,free,135,91,268309,GreenMonster_4_1,GreenMonster,category1D,grilled_cheese,grilled_cheese,True,717
A13I8ASC3JQ04P:3137ONMDKHKV7CTFARJR9IJ87EREG2,0,free,136,92,269782,GreenMonster_3_1,GreenMonster,category1D,grilled_cheese,grilled_cheese,True,661
A13I8ASC3JQ04P:3137ONMDKHKV7CTFARJR9IJ87EREG2,0,free,137,93,271200,GreenMonster_2_1,GreenMonster,category1D,tacos,tacos,True,1125
A13I8ASC3JQ04P:3137ONMDKHKV7CTFARJR9IJ87EREG2,0,free,138,94,273083,GreenMonster_1_1,GreenMonster,category1D,tacos,grilled_cheese,False,442
A13I8ASC3JQ04P:3137ONMDKHKV7CTFARJR9IJ87EREG2,0,free,139,95,274781,GreenMonster_3_1,GreenMonster,category1D,grilled_cheese,grilled_cheese,True,1828
A13I8ASC3JQ04P:3137ONMDKHKV7CTFARJR9IJ87EREG2,0,free,140,96,277365,GreenMonster_1_1,GreenMonster,category1D,tacos,tacos,True,880
A13I8ASC3JQ04P:3137ONMDKHKV7CTFARJR9IJ87EREG2,0,free,141,97,278999,GreenMonster_1_1,GreenMonster,category1D,tacos,tacos,True,858
A13I8ASC3JQ04P:3137ONMDKHKV7CTFARJR9IJ87EREG2,0,free,142,98,280617,GreenMonster_6_1,GreenMonster,category1D,grilled_cheese,grilled_cheese,True,1048
A13I8ASC3JQ04P:3137ONMDKHKV7CTFARJR9IJ87EREG2,0,free,143,99,282419,GreenMonster_5_1,GreenMonster,category1D,grilled_cheese,grilled_cheese,True,1434
A13I8ASC3JQ04P:3137ONMDKHKV7CTFARJR9IJ87EREG2,0,free,144,100,284610,GreenMonster_3_1,GreenMonster,category1D,grilled_cheese,grilled_cheese,True,3427
A13I8ASC3JQ04P:3137ONMDKHKV7CTFARJR9IJ87EREG2,0,free,145,101,288795,GreenMonster_1_1,GreenMonster,category1D,tacos,tacos,True,846
A13I8ASC3JQ04P:3137ONMDKHKV7CTFARJR9IJ87EREG2,0,free,146,102,290400,GreenMonster_3_1,GreenMonster,category1D,grilled_cheese,grilled_cheese,True,674
A13I8ASC3JQ04P:3137ONMDKHKV7CTFARJR9IJ87EREG2,0,free,147,103,291829,GreenMonster_5_1,GreenMonster,category1D,grilled_cheese,grilled_cheese,True,1024
A13I8ASC3JQ04P:3137ONMDKHKV7CTFARJR9IJ87EREG2,0,free,148,104,293609,GreenMonster_5_1,GreenMonster,category1D,grilled_cheese,grilled_cheese,True,548
A13I8ASC3JQ04P:3137ONMDKHKV7CTFARJR9IJ87EREG2,0,free,149,105,294912,GreenMonster_4_1,GreenMonster,category1D,grilled_cheese,grilled_cheese,True,595
A13I8ASC3JQ04P:3137ONMDKHKV7CTFARJR9IJ87EREG2,0,free,150,106,296265,GreenMonster_4_1,GreenMonster,category1D,grilled_cheese,grilled_cheese,True,532
A13I8ASC3JQ04P:3137ONMDKHKV7CTFARJR9IJ87EREG2,0,free,151,107,297552,GreenMonster_5_1,GreenMonster,category1D,grilled_cheese,grilled_cheese,True,590
A13I8ASC3JQ04P:3137ONMDKHKV7CTFARJR9IJ87EREG2,0,free,152,108,298901,GreenMonster_2_1,GreenMonster,category1D,tacos,tacos,True,1301
A13I8ASC3JQ04P:3137ONMDKHKV7CTFARJR9IJ87EREG2,0,free,153,109,300959,GreenMonster_2_1,GreenMonster,category1D,tacos,tacos,True,1022
A13I8ASC3JQ04P:3137ONMDKHKV7CTFARJR9IJ87EREG2,0,free,154,110,302739,GreenMonster_3_1,GreenMonster,category1D,grilled_cheese,tacos,False,522
A13I8ASC3JQ04P:3137ONMDKHKV7CTFARJR9IJ87EREG2,0,free,155,111,304516,GreenMonster_5_1,GreenMonster,category1D,grilled_cheese,grilled_cheese,True,1429
A13I8ASC3JQ04P:3137ONMDKHKV7CTFARJR9IJ87EREG2,0,free,156,112,306700,GreenMonster_5_1,GreenMonster,category1D,grilled_cheese,grilled_cheese,True,962
A13I8ASC3JQ04P:3137ONMDKHKV7CTFARJR9IJ87EREG2,0,free,157,113,308447,GreenMonster_1_1,GreenMonster,category1D,tacos,tacos,True,1034
A13I8ASC3JQ04P:3137ONMDKHKV7CTFARJR9IJ87EREG2,0,free,158,114,310240,GreenMonster_1_1,GreenMonster,category1D,tacos,tacos,True,1162
A13I8ASC3JQ04P:3137ONMDKHKV7CTFARJR9IJ87EREG2,0,free,159,115,312157,GreenMonster_6_1,GreenMonster,category1D,grilled_cheese,grilled_cheese,True,799
A13I8ASC3JQ04P:3137ONMDKHKV7CTFARJR9IJ87EREG2,0,free,160,116,313713,GreenMonster_1_1,GreenMonster,category1D,tacos,tacos,True,1039
A13I8ASC3JQ04P:3137ONMDKHKV7CTFARJR9IJ87EREG2,0,free,161,117,315508,GreenMonster_4_1,GreenMonster,category1D,grilled_cheese,grilled_cheese,True,756
A13I8ASC3JQ04P:3137ONMDKHKV7CTFARJR9IJ87EREG2,0,free,162,118,317023,GreenMonster_4_1,GreenMonster,category1D,grilled_cheese,grilled_cheese,True,686
A13I8ASC3JQ04P:3137ONMDKHKV7CTFARJR9IJ87EREG2,0,free,163,119,318464,GreenMonster_3_1,GreenMonster,category1D,grilled_cheese,grilled_cheese,True,580
A13I8ASC3JQ04P:3137ONMDKHKV7CTFARJR9IJ87EREG2,0,free,164,120,319800,GreenMonster_5_1,GreenMonster,category1D,grilled_cheese,grilled_cheese,True,1000
A13I8ASC3JQ04P:3137ONMDKHKV7CTFARJR9IJ87EREG2,0,free,165,121,321562,GreenMonster_1_1,GreenMonster,category1D,tacos,tacos,True,938
A13I8ASC3JQ04P:3137ONMDKHKV7CTFARJR9IJ87EREG2,0,free,166,122,323261,GreenMonster_1_1,GreenMonster,category1D,tacos,tacos,True,735
A13I8ASC3JQ04P:3137ONMDKHKV7CTFARJR9IJ87EREG2,0,free,167,123,324752,GreenMonster_3_1,GreenMonster,category1D,grilled_cheese,tacos,False,1112
A13I8ASC3JQ04P:3137ONMDKHKV7CTFARJR9IJ87EREG2,0,free,168,124,327120,GreenMonster_6_1,GreenMonster,category1D,grilled_cheese,grilled_cheese,True,732
A13I8ASC3JQ04P:3137ONMDKHKV7CTFARJR9IJ87EREG2,0,free,169,125,328614,GreenMonster_4_1,GreenMonster,category1D,grilled_cheese,grilled_cheese,True,686
A13I8ASC3JQ04P:3137ONMDKHKV7CTFARJR9IJ87EREG2,0,free,170,126,330059,GreenMonster_4_1,GreenMonster,category1D,grilled_cheese,grilled_cheese,True,614
A13I8ASC3JQ04P:3137ONMDKHKV7CTFARJR9IJ87EREG2,0,free,171,127,331427,GreenMonster_5_1,GreenMonster,category1D,grilled_cheese,grilled_cheese,True,530
A13I8ASC3JQ04P:3137ONMDKHKV7CTFARJR9IJ87EREG2,0,free,172,128,332713,GreenMonster_1_1,GreenMonster,category1D,tacos,tacos,True,1003
A13I8ASC3JQ04P:3137ONMDKHKV7CTFARJR9IJ87EREG2,0,free,173,129,334473,GreenMonster_5_1,GreenMonster,category1D,grilled_cheese,grilled_cheese,True,951
A13I8ASC3JQ04P:3137ONMDKHKV7CTFARJR9IJ87EREG2,0,free,174,130,336178,GreenMonster_1_1,GreenMonster,category1D,tacos,tacos,True,938
A13I8ASC3JQ04P:3137ONMDKHKV7CTFARJR9IJ87EREG2,0,free,175,131,337878,GreenMonster_2_1,GreenMonster,category1D,tacos,tacos,True,946
A13I8ASC3JQ04P:3137ONMDKHKV7CTFARJR9IJ87EREG2,0,free,176,132,339580,GreenMonster_3_1,GreenMonster,category1D,grilled_cheese,tacos,False,660
A13I8ASC3JQ04P:3137ONMDKHKV7CTFARJR9IJ87EREG2,0,free,177,133,341495,GreenMonster_3_1,GreenMonster,category1D,grilled_cheese,grilled_cheese,True,1325
A13I8ASC3JQ04P:3137ONMDKHKV7CTFARJR9IJ87EREG2,0,free,178,134,343575,GreenMonster_3_1,GreenMonster,category1D,grilled_cheese,grilled_cheese,True,753
A13I8ASC3JQ04P:3137ONMDKHKV7CTFARJR9IJ87EREG2,0,free,179,135,345090,GreenMonster_6_1,GreenMonster,category1D,grilled_cheese,grilled_cheese,True,1418
A13I8ASC3JQ04P:3137ONMDKHKV7CTFARJR9IJ87EREG2,0,free,180,136,347263,GreenMonster_1_1,GreenMonster,category1D,tacos,tacos,True,881
A13I8ASC3JQ04P:3137ONMDKHKV7CTFARJR9IJ87EREG2,0,free,181,137,348901,GreenMonster_6_1,GreenMonster,category1D,grilled_cheese,grilled_cheese,True,1060
A13I8ASC3JQ04P:3137ONMDKHKV7CTFARJR9IJ87EREG2,0,free,182,138,350715,GreenMonster_4_1,GreenMonster,category1D,grilled_cheese,grilled_cheese,True,1073
A13I8ASC3JQ04P:3137ONMDKHKV7CTFARJR9IJ87EREG2,0,free,183,139,352547,GreenMonster_3_1,GreenMonster,category1D,grilled_cheese,grilled_cheese,True,861
A13I8ASC3JQ04P:3137ONMDKHKV7CTFARJR9IJ87EREG2,0,free,184,140,354163,GreenMonster_4_1,GreenMonster,category1D,grilled_cheese,grilled_cheese,True,877
A13I8ASC3JQ04P:3137ONMDKHKV7CTFARJR9IJ87EREG2,0,free,185,141,355794,GreenMonster_3_1,GreenMonster,category1D,grilled_cheese,grilled_cheese,True,762
A13I8ASC3JQ04P:3137ONMDKHKV7CTFARJR9IJ87EREG2,0,free,186,142,357312,GreenMonster_3_1,GreenMonster,category1D,grilled_cheese,grilled_cheese,True,1236
A13I8ASC3JQ04P:3137ONMDKHKV7CTFARJR9IJ87EREG2,0,free,187,143,359305,GreenMonster_1_1,GreenMonster,category1D,tacos,tacos,True,959
A13I8ASC3JQ04P:3137ONMDKHKV7CTFARJR9IJ87EREG2,0,free,188,144,361018,GreenMonster_2_1,GreenMonster,category1D,tacos,tacos,True,962
A13I8ASC3JQ04P:3137ONMDKHKV7CTFARJR9IJ87EREG2,0,free,189,145,362737,GreenMonster_2_1,GreenMonster,category1D,tacos,tacos,True,507
A13I8ASC3JQ04P:3137ONMDKHKV7CTFARJR9IJ87EREG2,0,free,190,146,364003,GreenMonster_3_1,GreenMonster,category1D,grilled_cheese,tacos,False,1277
A13I8ASC3JQ04P:3137ONMDKHKV7CTFARJR9IJ87EREG2,0,free,191,147,366537,GreenMonster_2_1,GreenMonster,category1D,tacos,grilled_cheese,False,1556
A13I8ASC3JQ04P:3137ONMDKHKV7CTFARJR9IJ87EREG2,0,free,192,148,369349,GreenMonster_1_1,GreenMonster,category1D,tacos,tacos,True,1980
A13I8ASC3JQ04P:3137ONMDKHKV7CTFARJR9IJ87EREG2,0,free,193,149,372085,GreenMonster_2_1,GreenMonster,category1D,tacos,tacos,True,1552
A13I8ASC3JQ04P:3137ONMDKHKV7CTFARJR9IJ87EREG2,0,free,194,150,374394,GreenMonster_2_1,GreenMonster,category1D,tacos,tacos,True,1087
A13I8ASC3JQ04P:3137ONMDKHKV7CTFARJR9IJ87EREG2,0,free,195,151,376238,GreenMonster_2_1,GreenMonster,category1D,tacos,tacos,True,547
A13I8ASC3JQ04P:3137ONMDKHKV7CTFARJR9IJ87EREG2,0,free,196,152,377541,GreenMonster_6_1,GreenMonster,category1D,grilled_cheese,grilled_cheese,True,1041
A13I8ASC3JQ04P:3137ONMDKHKV7CTFARJR9IJ87EREG2,0,free,197,153,379341,GreenMonster_3_1,GreenMonster,category1D,grilled_cheese,grilled_cheese,True,1172
A13I8ASC3JQ04P:3137ONMDKHKV7CTFARJR9IJ87EREG2,0,free,198,154,381268,GreenMonster_6_1,GreenMonster,category1D,grilled_cheese,grilled_cheese,True,4742
A13I8ASC3JQ04P:3137ONMDKHKV7CTFARJR9IJ87EREG2,0,free,199,155,386766,GreenMonster_4_1,GreenMonster,category1D,grilled_cheese,grilled_cheese,True,728
A13I8ASC3JQ04P:3137ONMDKHKV7CTFARJR9IJ87EREG2,0,free,200,156,388256,GreenMonster_2_1,GreenMonster,category1D,tacos,tacos,True,1697
A13I8ASC3JQ04P:3137ONMDKHKV7CTFARJR9IJ87EREG2,0,free,201,1,391680,Squid_1_4,Squid,categoryIgnore1D,bananas,bananas,True,1806
A13I8ASC3JQ04P:3137ONMDKHKV7CTFARJR9IJ87EREG2,0,free,202,2,394241,Squid_1_3,Squid,categoryIgnore1D,bananas,bananas,True,888
A13I8ASC3JQ04P:3137ONMDKHKV7CTFARJR9IJ87EREG2,0,free,203,3,395887,Squid_2_4,Squid,categoryIgnore1D,bananas,bananas,True,1703
A13I8ASC3JQ04P:3137ONMDKHKV7CTFARJR9IJ87EREG2,0,free,204,4,398347,Squid_1_3,Squid,categoryIgnore1D,bananas,bananas,True,950
A13I8ASC3JQ04P:3137ONMDKHKV7CTFARJR9IJ87EREG2,0,free,205,5,400057,Squid_6_5,Squid,categoryIgnore1D,oranges,oranges,True,1020
A13I8ASC3JQ04P:3137ONMDKHKV7CTFARJR9IJ87EREG2,0,free,206,6,401832,Squid_6_4,Squid,categoryIgnore1D,oranges,oranges,True,769
A13I8ASC3JQ04P:3137ONMDKHKV7CTFARJR9IJ87EREG2,0,free,207,7,403363,Squid_2_3,Squid,categoryIgnore1D,bananas,bananas,True,1315
A13I8ASC3JQ04P:3137ONMDKHKV7CTFARJR9IJ87EREG2,0,free,208,8,405431,Squid_5_4,Squid,categoryIgnore1D,oranges,oranges,True,894
A13I8ASC3JQ04P:3137ONMDKHKV7CTFARJR9IJ87EREG2,0,free,209,9,407081,Squid_6_5,Squid,categoryIgnore1D,oranges,oranges,True,600
A13I8ASC3JQ04P:3137ONMDKHKV7CTFARJR9IJ87EREG2,0,free,210,10,408445,Squid_3_2,Squid,categoryIgnore1D,bananas,bananas,True,1544
A13I8ASC3JQ04P:3137ONMDKHKV7CTFARJR9IJ87EREG2,0,free,211,11,410746,Squid_1_4,Squid,categoryIgnore1D,bananas,oranges,False,691
A13I8ASC3JQ04P:3137ONMDKHKV7CTFARJR9IJ87EREG2,0,free,212,12,412694,Squid_5_3,Squid,categoryIgnore1D,oranges,oranges,True,963
A13I8ASC3JQ04P:3137ONMDKHKV7CTFARJR9IJ87EREG2,0,free,213,13,414414,Squid_1_1,Squid,categoryIgnore1D,bananas,bananas,True,951
A13I8ASC3JQ04P:3137ONMDKHKV7CTFARJR9IJ87EREG2,0,free,214,14,416120,Squid_6_6,Squid,categoryIgnore1D,oranges,oranges,True,1482
A13I8ASC3JQ04P:3137ONMDKHKV7CTFARJR9IJ87EREG2,0,free,215,15,418361,Squid_3_2,Squid,categoryIgnore1D,bananas,bananas,True,2332
A13I8ASC3JQ04P:3137ONMDKHKV7CTFARJR9IJ87EREG2,0,free,216,16,421448,Squid_5_5,Squid,categoryIgnore1D,oranges,oranges,True,877
A13I8ASC3JQ04P:3137ONMDKHKV7CTFARJR9IJ87EREG2,0,free,217,17,423086,Squid_5_1,Squid,categoryIgnore1D,oranges,oranges,True,3151
A13I8ASC3JQ04P:3137ONMDKHKV7CTFARJR9IJ87EREG2,0,free,218,18,426993,Squid_6_5,Squid,categoryIgnore1D,oranges,oranges,True,1668
A13I8ASC3JQ04P:3137ONMDKHKV7CTFARJR9IJ87EREG2,0,free,219,19,429422,Squid_6_5,Squid,categoryIgnore1D,oranges,oranges,True,1023
A13I8ASC3JQ04P:3137ONMDKHKV7CTFARJR9IJ87EREG2,0,free,220,20,431203,Squid_1_5,Squid,categoryIgnore1D,bananas,bananas,True,1246
A13I8ASC3JQ04P:3137ONMDKHKV7CTFARJR9IJ87EREG2,0,free,221,21,433205,Squid_3_4,Squid,categoryIgnore1D,bananas,bananas,True,2119
A13I8ASC3JQ04P:3137ONMDKHKV7CTFARJR9IJ87EREG2,0,free,222,1,437493,Bear_2_6,Bear,category2D,waffles,waffles,True,1151
A13I8ASC3JQ04P:3137ONMDKHKV7CTFARJR9IJ87EREG2,0,free,223,2,439402,Bear_3_4,Bear,category2D,pancakes,waffles,False,1554
A13I8ASC3JQ04P:3137ONMDKHKV7CTFARJR9IJ87EREG2,0,free,224,3,442212,Bear_5_5,Bear,category2D,waffles,waffles,True,848
A13I8ASC3JQ04P:3137ONMDKHKV7CTFARJR9IJ87EREG2,0,free,225,4,443822,Bear_2_5,Bear,category2D,waffles,waffles,True,1054
A13I8ASC3JQ04P:3137ONMDKHKV7CTFARJR9IJ87EREG2,0,free,226,5,445636,Bear_6_2,Bear,category2D,waffles,pancakes,False,1212
A13I8ASC3JQ04P:3137ONMDKHKV7CTFARJR9IJ87EREG2,0,free,227,6,448106,Bear_4_5,Bear,category2D,waffles,waffles,True,866
A13I8ASC3JQ04P:3137ONMDKHKV7CTFARJR9IJ87EREG2,0,free,228,7,449726,Bear_1_1,Bear,category2D,pancakes,pancakes,True,1258
A13I8ASC3JQ04P:3137ONMDKHKV7CTFARJR9IJ87EREG2,0,free,229,8,451743,Bear_4_5,Bear,category2D,waffles,waffles,True,909
A13I8ASC3JQ04P:3137ONMDKHKV7CTFARJR9IJ87EREG2,0,free,230,9,453407,Bear_4_2,Bear,category2D,pancakes,pancakes,True,1112
A13I8ASC3JQ04P:3137ONMDKHKV7CTFARJR9IJ87EREG2,0,free,231,10,455275,Bear_4_2,Bear,category2D,pancakes,pancakes,True,901
A13I8ASC3JQ04P:3137ONMDKHKV7CTFARJR9IJ87EREG2,0,free,232,11,456934,Bear_4_2,Bear,category2D,pancakes,pancakes,True,610
A13I8ASC3JQ04P:3137ONMDKHKV7CTFARJR9IJ87EREG2,0,free,233,12,458304,Bear_2_1,Bear,category2D,pancakes,pancakes,True,844
A13I8ASC3JQ04P:3137ONMDKHKV7CTFARJR9IJ87EREG2,0,free,234,13,459906,Bear_3_2,Bear,category2D,pancakes,pancakes,True,686
A13I8ASC3JQ04P:3137ONMDKHKV7CTFARJR9IJ87EREG2,0,free,235,14,461347,Bear_4_3,Bear,category2D,pancakes,pancakes,True,645
A13I8ASC3JQ04P:3137ONMDKHKV7CTFARJR9IJ87EREG2,0,free,236,15,462748,Bear_1_6,Bear,category2D,waffles,waffles,True,3860
A13I8ASC3JQ04P:3137ONMDKHKV7CTFARJR9IJ87EREG2,0,free,237,16,467364,Bear_6_4,Bear,category2D,waffles,waffles,True,4120
A13I8ASC3JQ04P:3137ONMDKHKV7CTFARJR9IJ87EREG2,0,free,238,17,472238,Bear_5_4,Bear,category2D,waffles,waffles,True,668
A13I8ASC3JQ04P:3137ONMDKHKV7CTFARJR9IJ87EREG2,0,free,239,18,473663,Bear_6_3,Bear,category2D,waffles,waffles,True,1141
A13I8ASC3JQ04P:3137ONMDKHKV7CTFARJR9IJ87EREG2,0,free,240,19,475560,Bear_4_3,Bear,category2D,pancakes,waffles,False,757
A13I8ASC3JQ04P:3137ONMDKHKV7CTFARJR9IJ87EREG2,0,free,241,1,481799,Bunny_3_6,Bunny,categoryRandom,carrot,carrot,True,1589
A13I8ASC3JQ04P:3137ONMDKHKV7CTFARJR9IJ87EREG2,0,free,242,2,484146,Bunny_6_1,Bunny,categoryRandom,broccoli,broccoli,True,1415
A13I8ASC3JQ04P:3137ONMDKHKV7CTFARJR9IJ87EREG2,0,free,243,3,486318,Bunny_2_4,Bunny,categoryRandom,broccoli,carrot,False,1250
A13I8ASC3JQ04P:3137ONMDKHKV7CTFARJR9IJ87EREG2,0,free,244,4,488826,Bunny_5_5,Bunny,categoryRandom,carrot,carrot,True,1079
A13I8ASC3JQ04P:3137ONMDKHKV7CTFARJR9IJ87EREG2,0,free,245,5,490665,Bunny_1_1,Bunny,categoryRandom,carrot,broccoli,False,1023
A13I8ASC3JQ04P:3137ONMDKHKV7CTFARJR9IJ87EREG2,0,free,246,6,492944,Bunny_6_2,Bunny,categoryRandom,broccoli,broccoli,True,1428
A13I8ASC3JQ04P:3137ONMDKHKV7CTFARJR9IJ87EREG2,0,free,247,7,495127,Bunny_1_1,Bunny,categoryRandom,carrot,broccoli,False,1073
A13I8ASC3JQ04P:3137ONMDKHKV7CTFARJR9IJ87EREG2,0,free,248,8,497456,Bunny_2_2,Bunny,categoryRandom,carrot,broccoli,False,1188
A13I8ASC3JQ04P:3137ONMDKHKV7CTFARJR9IJ87EREG2,0,free,249,9,499900,Bunny_2_6,Bunny,categoryRandom,broccoli,carrot,False,1136
A13I8ASC3JQ04P:3137ONMDKHKV7CTFARJR9IJ87EREG2,0,free,250,10,502301,Bunny_4_2,Bunny,categoryRandom,broccoli,broccoli,True,1476
A13I8ASC3JQ04P:3137ONMDKHKV7CTFARJR9IJ87EREG2,0,free,251,11,504540,Bunny_5_5,Bunny,categoryRandom,carrot,broccoli,False,3400
A14WLAP6TCEKO0:3Z7EFSHGNATRW04R3AD07GJ0PSACXZ,0,free,1,1,2267,GreenMonster_6_3,GreenMonster,categoryIgnore1D,broccoli,broccoli,True,2953
A14WLAP6TCEKO0:3Z7EFSHGNATRW04R3AD07GJ0PSACXZ,0,free,2,2,5978,GreenMonster_4_1,GreenMonster,categoryIgnore1D,broccoli,broccoli,True,1074
A14WLAP6TCEKO0:3Z7EFSHGNATRW04R3AD07GJ0PSACXZ,0,free,3,3,7808,GreenMonster_1_4,GreenMonster,categoryIgnore1D,carrot,broccoli,False,747
A14WLAP6TCEKO0:3Z7EFSHGNATRW04R3AD07GJ0PSACXZ,0,free,4,4,9810,GreenMonster_3_6,GreenMonster,categoryIgnore1D,carrot,carrot,True,793
A14WLAP6TCEKO0:3Z7EFSHGNATRW04R3AD07GJ0PSACXZ,0,free,5,5,11357,GreenMonster_4_1,GreenMonster,categoryIgnore1D,broccoli,broccoli,True,2351
